subject,trial_number,staircase_number,fixation_duration_ms,target_duration_ms,target_type,target_contrast,mask_duration_ms,objective_response,objective_response_time_ms,subjective_response,subjective_response_time_ms
0163,0,0,733.3333333333334,33.333333333333336,stimulus_1,0.4,33.333333333333336,stimulus_1,1.0375549793243408,2,1.1548781394958496,
0163,1,0,708.3333333333334,33.333333333333336,stimulus_0,0.2509879745459487,33.333333333333336,stimulus_1,2.187346935272217,2,1.4066989421844482,
0163,2,0,750.0,33.333333333333336,stimulus_1,0.41338283393965464,33.333333333333336,stimulus_1,0.9991750717163086,2,0.6996469497680664,
0163,3,0,525.0,33.333333333333336,stimulus_0,0.36442478598869543,33.333333333333336,stimulus_1,2.4554178714752197,1,0.5003390312194824,
0163,4,0,558.3333333333334,33.333333333333336,stimulus_1,0.44147128695293403,33.333333333333336,stimulus_1,1.2333130836486816,2,1.3511569499969482,
0163,5,0,641.6666666666667,33.333333333333336,stimulus_1,0.4141619288230435,33.333333333333336,stimulus_1,1.6342530250549316,2,0.8359959125518799,
0163,6,0,683.3333333333334,33.333333333333336,stimulus_0,0.3929584997867054,33.333333333333336,stimulus_0,1.2401340007781982,2,1.2400319576263428,
0163,7,0,575.0,33.333333333333336,stimulus_0,0.375648242891544,33.333333333333336,stimulus_0,0.6554131507873535,2,0.7776038646697998,
0163,8,0,550.0,33.333333333333336,stimulus_0,0.36143402076447223,33.333333333333336,stimulus_0,0.7154359817504883,2,0.9983780384063721,
0163,9,0,683.3333333333334,33.333333333333336,stimulus_1,0.3483698664280092,33.333333333333336,stimulus_1,1.1912147998809814,2,1.0329678058624268,
0163,10,0,716.6666666666667,33.333333333333336,stimulus_1,0.3367714796268495,33.333333333333336,stimulus_1,1.2987701892852783,2,1.1782701015472412,
0163,11,0,608.3333333333334,33.333333333333336,stimulus_0,0.3261915036485795,33.333333333333336,stimulus_0,1.5237679481506348,1,0.435107946395874,
0163,12,0,550.0,33.333333333333336,stimulus_1,0.31633383273377447,33.333333333333336,stimulus_1,0.8729898929595947,2,0.6132979393005371,
0163,13,0,641.6666666666667,33.333333333333336,stimulus_0,0.30698576843440917,33.333333333333336,stimulus_0,0.9060659408569336,3,0.751270055770874,
0163,14,0,575.0,33.333333333333336,stimulus_0,0.2979848446604569,33.333333333333336,stimulus_0,0.7741219997406006,2,1.011749029159546,
0163,15,0,658.3333333333334,33.333333333333336,stimulus_1,0.2891984261596583,33.333333333333336,stimulus_1,1.5959398746490479,2,0.9743509292602539,
0163,16,0,633.3333333333334,33.333333333333336,stimulus_1,0.2804958550537391,33.333333333333336,stimulus_1,0.7600409984588623,2,0.5799269676208496,
0163,17,0,708.3333333333334,33.333333333333336,stimulus_0,0.27173002180376266,33.333333333333336,stimulus_0,0.6304130554199219,2,0.47165608406066895,
0163,18,0,716.6666666666667,33.333333333333336,stimulus_0,0.2627833585299288,33.333333333333336,stimulus_0,0.6481869220733643,2,0.4587361812591553,
0163,19,0,625.0,33.333333333333336,stimulus_1,0.25350873327382073,33.333333333333336,stimulus_1,0.7462761402130127,2,0.5788838863372803,
0163,20,0,541.6666666666667,33.333333333333336,stimulus_0,0.2437254824012971,33.333333333333336,stimulus_0,1.1200921535491943,2,1.176623821258545,
0163,21,0,691.6666666666667,33.333333333333336,stimulus_1,0.23320778475154053,33.333333333333336,stimulus_1,0.7907440662384033,2,0.5545361042022705,
0163,22,0,591.6666666666667,33.333333333333336,stimulus_1,0.2216830006058439,33.333333333333336,stimulus_1,0.9536998271942139,2,0.5679111480712891,
0163,23,0,550.0,33.333333333333336,stimulus_0,0.20876130681225197,33.333333333333336,stimulus_0,0.8076050281524658,2,0.5966939926147461,
0163,24,0,591.6666666666667,33.333333333333336,stimulus_0,0.19406553624230005,33.333333333333336,stimulus_0,0.9251489639282227,2,0.6453559398651123,
0163,25,0,616.6666666666667,33.333333333333336,stimulus_1,0.17601130067849657,33.333333333333336,stimulus_1,0.7997710704803467,2,1.17616605758667,
0163,26,0,525.0,33.333333333333336,stimulus_1,0.15564806967279315,33.333333333333336,stimulus_1,0.7337551116943359,3,1.312927007675171,
0163,27,0,641.6666666666667,33.333333333333336,stimulus_0,0.1308726559615352,33.333333333333336,stimulus_0,0.7184112071990967,3,1.0071568489074707,
0163,28,0,708.3333333333334,33.333333333333336,stimulus_0,0.09572924785486892,33.333333333333336,stimulus_0,0.6093587875366211,3,1.0966191291809082,
0163,29,0,683.3333333333334,33.333333333333336,stimulus_1,0.04565373760310798,33.333333333333336,stimulus_1,0.9603900909423828,2,1.1121859550476074,
0163,30,0,750.0,33.333333333333336,stimulus_0,0.01,33.333333333333336,stimulus_1,1.442605972290039,2,0.4320688247680664,
0163,31,0,625.0,33.333333333333336,stimulus_1,0.10334504950564383,33.333333333333336,stimulus_1,0.6650080680847168,2,0.9664618968963623,
0163,32,0,508.33333333333337,33.333333333333336,stimulus_0,0.0816306914551449,33.333333333333336,stimulus_1,1.6543948650360107,1,0.8603990077972412,
0163,33,0,666.6666666666667,33.333333333333336,stimulus_0,0.12837445101378908,33.333333333333336,stimulus_1,1.8818960189819336,1,0.40496206283569336,
0163,34,0,533.3333333333334,33.333333333333336,stimulus_1,0.15693577519921123,33.333333333333336,stimulus_1,0.7133269309997559,2,0.5043480396270752,
0163,35,0,575.0,33.333333333333336,stimulus_1,0.14886848273547143,33.333333333333336,stimulus_1,1.4899570941925049,3,1.2733821868896484,
0163,36,0,641.6666666666667,33.333333333333336,stimulus_1,0.1409758010557819,33.333333333333336,stimulus_1,0.6729090213775635,3,0.9237110614776611,
0163,37,0,608.3333333333334,33.333333333333336,stimulus_1,0.13319488537341606,33.333333333333336,stimulus_1,0.6533238887786865,3,0.655797004699707,
0163,38,0,725.0,33.333333333333336,stimulus_0,0.1254889713973597,33.333333333333336,stimulus_0,0.7244358062744141,2,0.6307828426361084,
0163,39,0,741.6666666666667,33.333333333333336,stimulus_0,0.11833389744094552,33.333333333333336,stimulus_0,0.5877759456634521,2,0.5939180850982666,
0163,0,1,541.6666666666667,33.333333333333336,stimulus_0,0.4,33.333333333333336,stimulus_0,0.9445579051971436,2,1.128748893737793,
0163,1,1,558.3333333333334,33.333333333333336,stimulus_1,0.2509879745459487,33.333333333333336,stimulus_1,0.6400830745697021,2,0.7790679931640625,
0163,2,1,650.0,33.333333333333336,stimulus_0,0.15302949805965513,33.333333333333336,stimulus_0,0.760854959487915,2,0.7427968978881836,
0163,3,1,700.0,33.333333333333336,stimulus_1,0.07447047493079645,33.333333333333336,stimulus_1,0.7259790897369385,2,1.306190013885498,
0163,4,1,608.3333333333334,33.333333333333336,stimulus_1,0.01,33.333333333333336,stimulus_0,1.573624849319458,1,0.37299013137817383,
0163,5,1,733.3333333333334,33.333333333333336,stimulus_1,0.1153395389209863,33.333333333333336,stimulus_1,0.9299509525299072,2,0.7380819320678711,
0163,6,1,683.3333333333334,33.333333333333336,stimulus_0,0.08765518823841861,33.333333333333336,stimulus_0,1.216284990310669,3,0.5080828666687012,
0163,7,1,516.6666666666667,33.333333333333336,stimulus_0,0.0645285831773651,33.333333333333336,stimulus_1,1.6769850254058838,1,0.30803394317626953,
0163,8,1,558.3333333333334,33.333333333333336,stimulus_1,0.11258013320446575,33.333333333333336,stimulus_1,0.7143549919128418,2,0.43817710876464844,
0163,9,1,708.3333333333334,33.333333333333336,stimulus_0,0.0963927941734074,33.333333333333336,stimulus_0,1.0034360885620117,2,0.7052650451660156,
0163,10,1,616.6666666666667,33.333333333333336,stimulus_0,0.08286970784233239,33.333333333333336,stimulus_0,1.067775011062622,2,0.8462610244750977,
0163,11,1,625.0,33.333333333333336,stimulus_1,0.07035695489306293,33.333333333333336,stimulus_1,2.5835180282592773,1,0.3631172180175781,
0163,12,1,625.0,33.333333333333336,stimulus_0,0.059237386324505314,33.333333333333336,stimulus_0,0.7016401290893555,2,2.1319611072540283,
0163,13,1,575.0,33.333333333333336,stimulus_1,0.04913305960674036,33.333333333333336,stimulus_1,1.4045360088348389,1,0.4282681941986084,
0163,14,1,525.0,33.333333333333336,stimulus_0,0.03978416297748022,33.333333333333336,stimulus_1,1.8730559349060059,1,0.3933579921722412,
0163,15,1,608.3333333333334,33.333333333333336,stimulus_1,0.06290605499080115,33.333333333333336,stimulus_1,1.688960075378418,1,1.257925033569336,
0163,16,1,675.0,33.333333333333336,stimulus_1,0.055058690897386686,33.333333333333336,stimulus_1,1.3571810722351074,1,0.3661201000213623,
0163,17,1,741.6666666666667,33.333333333333336,stimulus_1,0.04808563965538448,33.333333333333336,stimulus_0,3.40372896194458,2,0.5795679092407227,
0163,18,1,583.3333333333334,33.333333333333336,stimulus_0,0.06639666290412194,33.333333333333336,stimulus_0,1.9010341167449951,1,0.3891739845275879,
0163,19,1,558.3333333333334,33.333333333333336,stimulus_0,0.060319275288479135,33.333333333333336,stimulus_0,2.0943610668182373,1,2.192821979522705,
0163,20,1,566.6666666666667,33.333333333333336,stimulus_1,0.05446175570114237,33.333333333333336,stimulus_1,3.0060269832611084,2,0.8910689353942871,
0163,21,1,608.3333333333334,33.333333333333336,stimulus_1,0.0487417488555002,33.333333333333336,stimulus_1,1.2881500720977783,1,1.1767480373382568,
0163,22,1,683.3333333333334,33.333333333333336,stimulus_0,0.043541149981465466,33.333333333333336,stimulus_1,1.8143420219421387,1,2.483947992324829,
0163,23,1,616.6666666666667,33.333333333333336,stimulus_0,0.05677583107183032,33.333333333333336,stimulus_1,2.314762830734253,1,0.3721339702606201,
0163,24,1,608.3333333333334,33.333333333333336,stimulus_0,0.06992263023533019,33.333333333333336,stimulus_0,0.937859058380127,2,0.7969441413879395,
0163,25,1,550.0,33.333333333333336,stimulus_1,0.06542512961828867,33.333333333333336,stimulus_1,0.9948790073394775,2,1.4827511310577393,
0163,26,1,591.6666666666667,33.333333333333336,stimulus_0,0.06125171739372531,33.333333333333336,stimulus_0,1.114772081375122,1,0.4362049102783203,
0163,27,1,675.0,33.333333333333336,stimulus_1,0.05707908240054144,33.333333333333336,stimulus_0,1.951606035232544,1,1.3348329067230225,
0163,28,1,550.0,33.333333333333336,stimulus_1,0.06808903959500928,33.333333333333336,stimulus_1,1.7120399475097656,1,0.3859379291534424,
0163,29,1,625.0,33.333333333333336,stimulus_1,0.06436046502516407,33.333333333333336,stimulus_1,1.4593911170959473,1,0.41936612129211426,
0163,30,1,633.3333333333334,33.333333333333336,stimulus_0,0.06059533750629298,33.333333333333336,stimulus_0,1.7680251598358154,1,0.7206070423126221,
0163,31,1,666.6666666666667,33.333333333333336,stimulus_0,0.05705189102117725,33.333333333333336,stimulus_0,1.2257800102233887,1,0.5152781009674072,
0163,32,1,750.0,33.333333333333336,stimulus_1,0.05375386573939811,33.333333333333336,stimulus_0,2.883744955062866,1,0.6514661312103271,
0163,33,1,716.6666666666667,33.333333333333336,stimulus_0,0.06249533925131168,33.333333333333336,stimulus_1,1.7416679859161377,1,1.0860459804534912,
0163,34,1,666.6666666666667,33.333333333333336,stimulus_0,0.07103910914984124,33.333333333333336,stimulus_0,3.7144999504089355,1,0.9123549461364746,
0163,35,1,608.3333333333334,33.333333333333336,stimulus_1,0.06789986757685479,33.333333333333336,stimulus_0,1.8724861145019531,1,2.001004934310913,
0163,36,1,600.0,33.333333333333336,stimulus_1,0.07624895256891895,33.333333333333336,stimulus_1,0.6796090602874756,2,0.9278438091278076,
0163,37,1,600.0,33.333333333333336,stimulus_0,0.07343009924117694,33.333333333333336,stimulus_0,1.364637851715088,1,0.7133939266204834,
0163,38,1,575.0,33.333333333333336,stimulus_1,0.07052460553111028,33.333333333333336,stimulus_1,0.7958698272705078,2,0.6064329147338867,
0163,39,1,550.0,33.333333333333336,stimulus_0,0.06775655071137149,33.333333333333336,stimulus_0,1.5423171520233154,1,0.5707361698150635,
0163,0,2,525.0,33.333333333333336,stimulus_1,0.4,33.333333333333336,stimulus_1,0.6984529495239258,2,0.8868329524993896,
0163,1,2,625.0,33.333333333333336,stimulus_0,0.2509879745459487,33.333333333333336,stimulus_0,0.6032829284667969,3,0.8715610504150391,
0163,2,2,750.0,33.333333333333336,stimulus_0,0.15302949805965513,33.333333333333336,stimulus_0,0.6765921115875244,2,0.7398478984832764,
0163,3,2,666.6666666666667,33.333333333333336,stimulus_1,0.07447047493079645,33.333333333333336,stimulus_1,0.559643030166626,2,0.6305890083312988,
0163,4,2,566.6666666666667,33.333333333333336,stimulus_0,0.01,33.333333333333336,stimulus_1,1.5078108310699463,1,0.3208770751953125,
0163,5,2,641.6666666666667,33.333333333333336,stimulus_1,0.1153395389209863,33.333333333333336,stimulus_1,0.7204608917236328,2,0.880033016204834,
0163,6,2,508.33333333333337,33.333333333333336,stimulus_1,0.08765518823841861,33.333333333333336,stimulus_1,0.8454949855804443,2,0.42101097106933594,
0163,7,2,716.6666666666667,33.333333333333336,stimulus_0,0.0645285831773651,33.333333333333336,stimulus_0,1.7717270851135254,2,0.6190791130065918,
0163,8,2,625.0,33.333333333333336,stimulus_1,0.04384644936456128,33.333333333333336,stimulus_1,0.7141411304473877,2,0.37809014320373535,
0163,9,2,591.6666666666667,33.333333333333336,stimulus_0,0.02561117919315764,33.333333333333336,stimulus_1,1.5453360080718994,2,0.48774003982543945,
0163,10,2,591.6666666666667,33.333333333333336,stimulus_1,0.06657659810876931,33.333333333333336,stimulus_1,1.038666009902954,2,0.4710369110107422,
0163,11,2,583.3333333333334,33.333333333333336,stimulus_0,0.05431663223708755,33.333333333333336,stimulus_0,2.419591188430786,1,0.32034802436828613,
0163,12,2,525.0,33.333333333333336,stimulus_0,0.04274029794745687,33.333333333333336,stimulus_0,0.6452319622039795,2,1.0331721305847168,
0163,13,2,675.0,33.333333333333336,stimulus_0,0.03228088725506478,33.333333333333336,stimulus_1,1.5138840675354004,2,0.6093730926513672,
0163,14,2,500.00000000000006,33.333333333333336,stimulus_1,0.0567877555144467,33.333333333333336,stimulus_1,1.0239408016204834,2,0.5391089916229248,
0163,15,2,658.3333333333334,33.333333333333336,stimulus_1,0.048552528377844795,33.333333333333336,stimulus_1,2.1009671688079834,1,0.3233518600463867,
0163,16,2,550.0,33.333333333333336,stimulus_0,0.04086498943713157,33.333333333333336,stimulus_1,0.8363609313964844,1,0.3264191150665283,
0163,17,2,625.0,33.333333333333336,stimulus_1,0.06008697259357737,33.333333333333336,stimulus_1,1.3268799781799316,1,0.4504659175872803,
0163,18,2,650.0,33.333333333333336,stimulus_1,0.0534080341818674,33.333333333333336,stimulus_1,2.651172161102295,1,0.9003000259399414,
0163,19,2,625.0,33.333333333333336,stimulus_0,0.046992199890188935,33.333333333333336,stimulus_1,3.6216750144958496,1,0.6173019409179688,
0163,20,2,625.0,33.333333333333336,stimulus_1,0.06324662767860412,33.333333333333336,stimulus_1,0.7448239326477051,2,0.6004211902618408,
0163,21,2,641.6666666666667,33.333333333333336,stimulus_0,0.05755086748931515,33.333333333333336,stimulus_0,0.7456068992614746,2,0.4381749629974365,
0163,22,2,516.6666666666667,33.333333333333336,stimulus_1,0.05240843997162753,33.333333333333336,stimulus_1,0.8020980358123779,2,0.6331930160522461,
0163,23,2,733.3333333333334,33.333333333333336,stimulus_0,0.04733550191835856,33.333333333333336,stimulus_1,1.1314690113067627,1,0.883591890335083,
0163,24,2,691.6666666666667,33.333333333333336,stimulus_0,0.06044488750362631,33.333333333333336,stimulus_0,0.9993839263916016,2,0.48587799072265625,
0163,25,2,625.0,33.333333333333336,stimulus_1,0.05591450957374383,33.333333333333336,stimulus_1,2.422489881515503,2,0.47673702239990234,
0163,26,2,666.6666666666667,33.333333333333336,stimulus_1,0.05173132641191325,33.333333333333336,stimulus_1,2.026043176651001,2,0.4810309410095215,
0163,27,2,641.6666666666667,33.333333333333336,stimulus_0,0.04753779608019837,33.333333333333336,stimulus_1,1.8263819217681885,1,0.4452519416809082,
0163,28,2,541.6666666666667,33.333333333333336,stimulus_1,0.05851589418312436,33.333333333333336,stimulus_1,1.4849519729614258,1,0.3466529846191406,
0163,29,2,716.6666666666667,33.333333333333336,stimulus_1,0.05477093589167087,33.333333333333336,stimulus_1,1.6412580013275146,1,0.3629441261291504,
0163,30,2,508.33333333333337,33.333333333333336,stimulus_0,0.051002847947102636,33.333333333333336,stimulus_1,1.1941640377044678,1,0.26772189140319824,
0163,31,2,541.6666666666667,33.333333333333336,stimulus_0,0.06055836521602792,33.333333333333336,stimulus_1,1.1613049507141113,2,0.3711061477661133,
0163,32,2,575.0,33.333333333333336,stimulus_1,0.0698599927477529,33.333333333333336,stimulus_1,0.865319013595581,2,0.41524600982666016,
0163,33,2,533.3333333333334,33.333333333333336,stimulus_0,0.06654619125363403,33.333333333333336,stimulus_0,2.2965731620788574,1,0.4227619171142578,
0163,34,2,558.3333333333334,33.333333333333336,stimulus_0,0.06344396240751271,33.333333333333336,stimulus_1,1.0336501598358154,2,1.5795650482177734,
0163,35,2,558.3333333333334,33.333333333333336,stimulus_1,0.07172193110353353,33.333333333333336,stimulus_1,0.9129350185394287,2,0.5377631187438965,
0163,36,2,750.0,33.333333333333336,stimulus_0,0.06862827632038682,33.333333333333336,stimulus_0,0.7873458862304688,2,0.49024081230163574,
0163,37,2,500.00000000000006,33.333333333333336,stimulus_0,0.06575551865781754,33.333333333333336,stimulus_0,1.4927458763122559,1,0.34821391105651855,
0163,38,2,516.6666666666667,33.333333333333336,stimulus_1,0.06303277354960263,33.333333333333336,stimulus_1,1.4337608814239502,1,0.38649415969848633,
0163,39,2,566.6666666666667,33.333333333333336,stimulus_1,0.060212498627024214,33.333333333333336,stimulus_1,1.2011020183563232,1,0.36322689056396484,
0163,0,3,591.6666666666667,33.333333333333336,stimulus_0,0.4,33.333333333333336,stimulus_0,1.1531200408935547,3,0.6860179901123047,
0163,1,3,625.0,33.333333333333336,stimulus_0,0.2509879745459487,33.333333333333336,stimulus_0,0.6396219730377197,3,0.42341089248657227,
0163,2,3,541.6666666666667,33.333333333333336,stimulus_1,0.15302949805965513,33.333333333333336,stimulus_1,0.7422540187835693,3,0.4625427722930908,
0163,3,3,616.6666666666667,33.333333333333336,stimulus_1,0.07447047493079645,33.333333333333336,stimulus_1,1.0961968898773193,2,0.4678628444671631,
0163,4,3,716.6666666666667,33.333333333333336,stimulus_0,0.01,33.333333333333336,stimulus_1,1.4233369827270508,2,0.35285091400146484,
0163,5,3,683.3333333333334,33.333333333333336,stimulus_1,0.1153395389209863,33.333333333333336,stimulus_1,3.0325260162353516,3,0.35091304779052734,
0163,6,3,508.33333333333337,33.333333333333336,stimulus_0,0.08765518823841861,33.333333333333336,stimulus_0,1.1036498546600342,3,0.4336230754852295,
0163,7,3,641.6666666666667,33.333333333333336,stimulus_1,0.0645285831773651,33.333333333333336,stimulus_1,1.1777980327606201,2,0.5277690887451172,
0163,8,3,566.6666666666667,33.333333333333336,stimulus_1,0.04384644936456128,33.333333333333336,stimulus_1,0.9029929637908936,2,0.3921639919281006,
0163,9,3,691.6666666666667,33.333333333333336,stimulus_0,0.02561117919315764,33.333333333333336,stimulus_1,1.7031891345977783,2,0.4156801700592041,
0163,10,3,566.6666666666667,33.333333333333336,stimulus_0,0.06657659810876931,33.333333333333336,stimulus_0,0.8042011260986328,2,0.49378514289855957,
0163,11,3,750.0,33.333333333333336,stimulus_1,0.05431663223708755,33.333333333333336,stimulus_1,1.832939863204956,2,0.34477710723876953,
0163,12,3,658.3333333333334,33.333333333333336,stimulus_1,0.04274029794745687,33.333333333333336,stimulus_1,1.8331220149993896,2,0.3934319019317627,
0163,13,3,566.6666666666667,33.333333333333336,stimulus_1,0.03228088725506478,33.333333333333336,stimulus_1,0.8525328636169434,1,0.4241790771484375,
0163,14,3,641.6666666666667,33.333333333333336,stimulus_0,0.022655735698633828,33.333333333333336,stimulus_0,1.4865291118621826,1,0.36317920684814453,
0163,15,3,666.6666666666667,33.333333333333336,stimulus_0,0.013658280952037805,33.333333333333336,stimulus_1,1.881983995437622,1,0.4150869846343994,
0163,16,3,600.0,33.333333333333336,stimulus_1,0.03502454954947554,33.333333333333336,stimulus_1,1.4656832218170166,1,0.36606597900390625,
0163,17,3,641.6666666666667,33.333333333333336,stimulus_0,0.027933481981658792,33.333333333333336,stimulus_0,1.6913731098175049,1,0.44618916511535645,
0163,18,3,566.6666666666667,33.333333333333336,stimulus_1,0.02118072391924991,33.333333333333336,stimulus_0,2.436656951904297,1,0.5644049644470215,
0163,19,3,625.0,33.333333333333336,stimulus_0,0.038344251135691565,33.333333333333336,stimulus_1,2.321868896484375,2,0.35930609703063965,
0163,20,3,733.3333333333334,33.333333333333336,stimulus_1,0.05463822656298323,33.333333333333336,stimulus_1,1.103266954421997,2,0.6236729621887207,
0163,21,3,725.0,33.333333333333336,stimulus_1,0.04882698094645299,33.333333333333336,stimulus_1,1.3607780933380127,2,0.469635009765625,
0163,22,3,733.3333333333334,33.333333333333336,stimulus_0,0.04358615823408063,33.333333333333336,stimulus_1,1.6923818588256836,1,0.7849819660186768,
0163,23,3,625.0,33.333333333333336,stimulus_0,0.05687279239592985,33.333333333333336,stimulus_0,1.1319360733032227,2,0.41219210624694824,
0163,24,3,641.6666666666667,33.333333333333336,stimulus_0,0.05218114524135892,33.333333333333336,stimulus_1,1.3239741325378418,2,0.8356349468231201,
0163,25,3,666.6666666666667,33.333333333333336,stimulus_0,0.06443510282571563,33.333333333333336,stimulus_1,1.0421171188354492,2,0.4765810966491699,
0163,26,3,633.3333333333334,33.333333333333336,stimulus_1,0.07607697654633117,33.333333333333336,stimulus_1,2.79905104637146,2,0.5454351902008057,
0163,27,3,541.6666666666667,33.333333333333336,stimulus_1,0.07192061078391676,33.333333333333336,stimulus_1,0.8263380527496338,2,0.3844881057739258,
0163,28,3,500.00000000000006,33.333333333333336,stimulus_0,0.06776762439728284,33.333333333333336,stimulus_0,2.1541078090667725,2,0.39417195320129395,
0163,29,3,683.3333333333334,33.333333333333336,stimulus_1,0.06396026100108676,33.333333333333336,stimulus_1,0.816929817199707,2,0.44350314140319824,
0163,30,3,525.0,33.333333333333336,stimulus_0,0.0601145645509244,33.333333333333336,stimulus_1,1.4647998809814453,1,0.5124950408935547,
0163,31,3,716.6666666666667,33.333333333333336,stimulus_1,0.06990352435496422,33.333333333333336,stimulus_1,0.6823680400848389,1,0.34558701515197754,
0163,32,3,616.6666666666667,33.333333333333336,stimulus_1,0.06643104659215365,33.333333333333336,stimulus_1,1.4112849235534668,2,0.5519421100616455,
0163,33,3,575.0,33.333333333333336,stimulus_0,0.06318613960926861,33.333333333333336,stimulus_0,0.7328469753265381,2,0.46001291275024414,
0163,34,3,583.3333333333334,33.333333333333336,stimulus_1,0.05986067152294816,33.333333333333336,stimulus_1,1.5443038940429688,2,0.44069719314575195,
0163,35,3,541.6666666666667,33.333333333333336,stimulus_0,0.05675331683143908,33.333333333333336,stimulus_0,0.6975560188293457,2,0.47220301628112793,
0163,36,3,691.6666666666667,33.333333333333336,stimulus_1,0.053836885653951616,33.333333333333336,stimulus_1,0.6856529712677002,2,0.4335949420928955,
0163,37,3,516.6666666666667,33.333333333333336,stimulus_0,0.0508427266185989,33.333333333333336,stimulus_0,1.5174829959869385,2,0.4649331569671631,
0163,38,3,550.0,33.333333333333336,stimulus_0,0.047974472928501655,33.333333333333336,stimulus_0,0.7804820537567139,2,0.3996551036834717,
0163,39,3,691.6666666666667,33.333333333333336,stimulus_1,0.045294482713568396,33.333333333333336,stimulus_1,0.7114090919494629,2,0.4587569236755371,
0163,0,4,675.0,33.333333333333336,stimulus_0,0.4,33.333333333333336,stimulus_0,0.6614718437194824,3,0.735001802444458,
0163,1,4,633.3333333333334,33.333333333333336,stimulus_1,0.2509879745459487,33.333333333333336,stimulus_1,0.8512229919433594,3,0.4143691062927246,
0163,2,4,608.3333333333334,33.333333333333336,stimulus_0,0.15302949805965513,33.333333333333336,stimulus_0,0.6315279006958008,3,0.3867640495300293,
0163,3,4,550.0,33.333333333333336,stimulus_1,0.07447047493079645,33.333333333333336,stimulus_1,0.8413341045379639,3,0.33191704750061035,
0163,4,4,558.3333333333334,33.333333333333336,stimulus_0,0.01,33.333333333333336,stimulus_1,0.6124448776245117,3,0.3223440647125244,
0163,5,4,575.0,33.333333333333336,stimulus_0,0.1153395389209863,33.333333333333336,stimulus_0,0.7005751132965088,3,0.32184290885925293,
0163,6,4,533.3333333333334,33.333333333333336,stimulus_1,0.08765518823841861,33.333333333333336,stimulus_1,0.606719970703125,3,0.38500404357910156,
0163,7,4,566.6666666666667,33.333333333333336,stimulus_1,0.0645285831773651,33.333333333333336,stimulus_1,1.6159839630126953,2,0.6737351417541504,
0163,8,4,733.3333333333334,33.333333333333336,stimulus_0,0.04384644936456128,33.333333333333336,stimulus_1,1.3465611934661865,2,0.40692687034606934,
0163,9,4,575.0,33.333333333333336,stimulus_0,0.08680296160416001,33.333333333333336,stimulus_0,0.8327839374542236,2,0.4530520439147949,
0163,10,4,675.0,33.333333333333336,stimulus_1,0.07304390441589714,33.333333333333336,stimulus_1,0.823004961013794,2,0.45844507217407227,
0163,11,4,600.0,33.333333333333336,stimulus_1,0.06036506265919761,33.333333333333336,stimulus_1,0.6416780948638916,2,0.46956801414489746,
0163,12,4,608.3333333333334,33.333333333333336,stimulus_0,0.04913741120775028,33.333333333333336,stimulus_0,0.6925849914550781,2,0.40761399269104004,
0163,13,4,558.3333333333334,33.333333333333336,stimulus_1,0.03896676368596064,33.333333333333336,stimulus_1,1.4408361911773682,2,1.1797630786895752,
0163,14,4,500.00000000000006,33.333333333333336,stimulus_1,0.029583248759119773,33.333333333333336,stimulus_1,0.8483481407165527,2,0.3789370059967041,
0163,15,4,608.3333333333334,33.333333333333336,stimulus_0,0.020799436990497633,33.333333333333336,stimulus_1,0.6584548950195312,2,0.36338305473327637,
0163,16,4,658.3333333333334,33.333333333333336,stimulus_0,0.042511143051070566,33.333333333333336,stimulus_1,1.3535399436950684,1,0.26619791984558105,
0163,17,4,683.3333333333334,33.333333333333336,stimulus_1,0.06159865718672247,33.333333333333336,stimulus_1,1.5770201683044434,1,0.22226309776306152,
0163,18,4,608.3333333333334,33.333333333333336,stimulus_0,0.05481504571218754,33.333333333333336,stimulus_1,0.7047350406646729,1,0.2635009288787842,
0163,19,4,575.0,33.333333333333336,stimulus_1,0.07118655269703994,33.333333333333336,stimulus_0,2.142056941986084,1,0.6654329299926758,
0163,20,4,533.3333333333334,33.333333333333336,stimulus_0,0.08711344942892596,33.333333333333336,stimulus_0,0.7269139289855957,2,0.3491861820220947,
0163,21,4,533.3333333333334,33.333333333333336,stimulus_0,0.08155069545319021,33.333333333333336,stimulus_1,2.0333051681518555,2,1.08992600440979,
0163,22,4,508.33333333333337,33.333333333333336,stimulus_1,0.09589036721542399,33.333333333333336,stimulus_1,1.8070940971374512,2,0.7380788326263428,
0163,23,4,658.3333333333334,33.333333333333336,stimulus_1,0.09087478944802574,33.333333333333336,stimulus_1,0.7302439212799072,2,0.540424108505249,
0163,24,4,533.3333333333334,33.333333333333336,stimulus_1,0.08598842469195356,33.333333333333336,stimulus_1,0.8306560516357422,2,0.4788789749145508,
0163,25,4,533.3333333333334,33.333333333333336,stimulus_0,0.08151562499505927,33.333333333333336,stimulus_0,1.194417953491211,2,0.542896032333374,
0163,26,4,633.3333333333334,33.333333333333336,stimulus_1,0.07708084572366286,33.333333333333336,stimulus_1,0.7737600803375244,2,0.48134398460388184,
0163,27,4,666.6666666666667,33.333333333333336,stimulus_0,0.0730151394704397,33.333333333333336,stimulus_1,0.8590359687805176,2,0.41135501861572266,
0163,28,4,741.6666666666667,33.333333333333336,stimulus_0,0.08368014765121495,33.333333333333336,stimulus_0,0.8572108745574951,2,0.5794811248779297,
0163,29,4,675.0,33.333333333333336,stimulus_1,0.07969462551448636,33.333333333333336,stimulus_1,0.6982741355895996,2,0.4338240623474121,
0163,30,4,750.0,33.333333333333336,stimulus_0,0.07601297162109338,33.333333333333336,stimulus_0,1.651418924331665,2,0.3224949836730957,
0163,31,4,683.3333333333334,33.333333333333336,stimulus_1,0.07257156849339608,33.333333333333336,stimulus_1,1.0553739070892334,2,1.0715911388397217,
0163,32,4,583.3333333333334,33.333333333333336,stimulus_1,0.06905692381153616,33.333333333333336,stimulus_1,1.0824999809265137,2,0.35052990913391113,
0163,33,4,591.6666666666667,33.333333333333336,stimulus_0,0.0657954890618826,33.333333333333336,stimulus_0,0.7007720470428467,2,0.44099998474121094,
0163,34,4,516.6666666666667,33.333333333333336,stimulus_0,0.0627195751834902,33.333333333333336,stimulus_1,1.4618239402770996,2,0.34769606590270996,
0163,35,4,541.6666666666667,33.333333333333336,stimulus_1,0.0710010268023904,33.333333333333336,stimulus_1,1.4803051948547363,1,0.3853330612182617,
0163,36,4,541.6666666666667,33.333333333333336,stimulus_0,0.06795587591477326,33.333333333333336,stimulus_1,1.3092620372772217,1,0.36698007583618164,
0163,37,4,691.6666666666667,33.333333333333336,stimulus_1,0.07606492364590678,33.333333333333336,stimulus_1,1.059587001800537,2,0.7554590702056885,
0163,38,4,741.6666666666667,33.333333333333336,stimulus_0,0.0733338120719062,33.333333333333336,stimulus_0,0.753587007522583,2,0.384753942489624,
0163,39,4,725.0,33.333333333333336,stimulus_1,0.07051139165702641,33.333333333333336,stimulus_0,1.1223487854003906,1,0.30976080894470215,
0163,0,5,508.33333333333337,33.333333333333336,stimulus_1,0.4,33.333333333333336,stimulus_1,0.7591671943664551,2,0.5694611072540283,
0163,1,5,733.3333333333334,33.333333333333336,stimulus_0,0.2509879745459487,33.333333333333336,stimulus_0,0.596275806427002,3,0.4338080883026123,
0163,2,5,691.6666666666667,33.333333333333336,stimulus_1,0.15302949805965513,33.333333333333336,stimulus_1,0.6516709327697754,3,0.38694310188293457,
0163,3,5,666.6666666666667,33.333333333333336,stimulus_0,0.07447047493079645,33.333333333333336,stimulus_0,0.8528139591217041,3,0.713036060333252,
0163,4,5,566.6666666666667,33.333333333333336,stimulus_1,0.01,33.333333333333336,stimulus_1,0.8308961391448975,3,0.8681349754333496,
0163,5,5,625.0,33.333333333333336,stimulus_0,0.01,33.333333333333336,stimulus_1,1.1572530269622803,2,0.42739391326904297,
0163,6,5,700.0,33.333333333333336,stimulus_1,0.07052923220481583,33.333333333333336,stimulus_1,0.887260913848877,2,0.4461328983306885,
0163,7,5,625.0,33.333333333333336,stimulus_0,0.04657433209187717,33.333333333333336,stimulus_0,1.360473871231079,2,0.4251430034637451,
0163,8,5,566.6666666666667,33.333333333333336,stimulus_1,0.02673196139095757,33.333333333333336,stimulus_1,1.1043429374694824,2,0.377471923828125,
0163,9,5,600.0,33.333333333333336,stimulus_0,0.01,33.333333333333336,stimulus_1,0.7983908653259277,2,0.38904404640197754,
0163,10,5,616.6666666666667,33.333333333333336,stimulus_1,0.049418962741122674,33.333333333333336,stimulus_1,0.7298450469970703,2,0.3810551166534424,
0163,11,5,625.0,33.333333333333336,stimulus_0,0.03689935795734073,33.333333333333336,stimulus_0,1.4570260047912598,1,0.3820760250091553,
0163,12,5,558.3333333333334,33.333333333333336,stimulus_1,0.02586733957405085,33.333333333333336,stimulus_0,1.7076849937438965,1,0.35768795013427734,
0163,13,5,716.6666666666667,33.333333333333336,stimulus_1,0.053426843740201735,33.333333333333336,stimulus_1,1.083975076675415,2,0.8218390941619873,
0163,14,5,566.6666666666667,33.333333333333336,stimulus_0,0.044111702384250606,33.333333333333336,stimulus_1,1.7904019355773926,1,0.3730189800262451,
0163,15,5,708.3333333333334,33.333333333333336,stimulus_0,0.06573313039886963,33.333333333333336,stimulus_1,1.8779780864715576,1,0.39797401428222656,
0163,16,5,691.6666666666667,33.333333333333336,stimulus_1,0.08721092473137204,33.333333333333336,stimulus_1,2.123568058013916,2,0.30995798110961914,
0163,17,5,675.0,33.333333333333336,stimulus_0,0.0799573116750299,33.333333333333336,stimulus_0,0.7963860034942627,2,0.3389320373535156,
0163,18,5,583.3333333333334,33.333333333333336,stimulus_0,0.07318993965230775,33.333333333333336,stimulus_0,1.0261540412902832,1,0.2760899066925049,
0163,19,5,550.0,33.333333333333336,stimulus_1,0.0667408650632404,33.333333333333336,stimulus_0,0.9045999050140381,1,0.5272059440612793,
0163,20,5,650.0,33.333333333333336,stimulus_1,0.0830854343588468,33.333333333333336,stimulus_0,3.3864808082580566,2,0.886944055557251,
0163,21,5,533.3333333333334,33.333333333333336,stimulus_0,0.0980680520643481,33.333333333333336,stimulus_0,0.605078935623169,2,0.36426210403442383,
0163,22,5,650.0,33.333333333333336,stimulus_0,0.09269582375460256,33.333333333333336,stimulus_0,1.7890560626983643,2,0.6946680545806885,
0163,23,5,700.0,33.333333333333336,stimulus_1,0.08745685771232176,33.333333333333336,stimulus_1,0.8977890014648438,2,0.586306095123291,
0163,24,5,625.0,33.333333333333336,stimulus_0,0.08272477025671393,33.333333333333336,stimulus_0,0.6838159561157227,3,0.4698190689086914,
0163,25,5,600.0,33.333333333333336,stimulus_0,0.07803837230367211,33.333333333333336,stimulus_0,0.8640108108520508,3,0.408876895904541,
0163,26,5,508.33333333333337,33.333333333333336,stimulus_1,0.07377133359541288,33.333333333333336,stimulus_1,1.2571501731872559,2,0.46617603302001953,
0163,27,5,675.0,33.333333333333336,stimulus_1,0.06949498243811447,33.333333333333336,stimulus_1,0.7297170162200928,2,0.3929281234741211,
0163,28,5,608.3333333333334,33.333333333333336,stimulus_1,0.06556055636772995,33.333333333333336,stimulus_1,0.6177811622619629,2,0.3763251304626465,
0163,29,5,541.6666666666667,33.333333333333336,stimulus_0,0.06188371950631327,33.333333333333336,stimulus_1,0.8255691528320312,2,0.4058709144592285,
0163,30,5,575.0,33.333333333333336,stimulus_0,0.07174171370032506,33.333333333333336,stimulus_0,0.7447128295898438,2,0.42425084114074707,
0163,31,5,675.0,33.333333333333336,stimulus_1,0.06813171084936603,33.333333333333336,stimulus_1,0.6994531154632568,2,0.7710671424865723,
0163,32,5,716.6666666666667,33.333333333333336,stimulus_1,0.06479539810160806,33.333333333333336,stimulus_1,1.077491044998169,2,0.8866910934448242,
0163,33,5,733.3333333333334,33.333333333333336,stimulus_0,0.061418288471607185,33.333333333333336,stimulus_1,1.3828299045562744,2,0.5190379619598389,
0163,34,5,583.3333333333334,33.333333333333336,stimulus_1,0.06999910755707034,33.333333333333336,stimulus_1,1.4778389930725098,2,0.4239799976348877,
0163,35,5,508.33333333333337,33.333333333333336,stimulus_0,0.06691514695021084,33.333333333333336,stimulus_1,2.5079739093780518,2,0.45382118225097656,
0163,36,5,708.3333333333334,33.333333333333336,stimulus_0,0.07531228259306805,33.333333333333336,stimulus_0,0.6284239292144775,3,0.38162899017333984,
0163,37,5,608.3333333333334,33.333333333333336,stimulus_0,0.07250891523354203,33.333333333333336,stimulus_1,1.0111830234527588,2,0.39296603202819824,
0163,38,5,525.0,33.333333333333336,stimulus_1,0.08008947510425563,33.333333333333336,stimulus_1,0.6378350257873535,2,0.4298250675201416,
0163,39,5,691.6666666666667,33.333333333333336,stimulus_1,0.07731940698366868,33.333333333333336,stimulus_1,0.6103601455688477,2,0.3959469795227051,
0163,0,6,583.3333333333334,33.333333333333336,stimulus_1,0.4,33.333333333333336,stimulus_1,0.6925339698791504,3,0.47460317611694336,
0163,1,6,708.3333333333334,33.333333333333336,stimulus_0,0.2509879745459487,33.333333333333336,stimulus_0,0.6271059513092041,3,0.3453400135040283,
0163,2,6,733.3333333333334,33.333333333333336,stimulus_0,0.15302949805965513,33.333333333333336,stimulus_0,0.6032071113586426,3,0.28547096252441406,
0163,3,6,700.0,33.333333333333336,stimulus_1,0.07447047493079645,33.333333333333336,stimulus_1,1.174342155456543,2,0.3518531322479248,
0163,4,6,608.3333333333334,33.333333333333336,stimulus_0,0.01,33.333333333333336,stimulus_1,1.162355899810791,2,0.5118229389190674,
0163,5,6,541.6666666666667,33.333333333333336,stimulus_0,0.1153395389209863,33.333333333333336,stimulus_0,0.7769999504089355,3,0.40028905868530273,
0163,6,6,575.0,33.333333333333336,stimulus_1,0.08765518823841861,33.333333333333336,stimulus_1,0.9118759632110596,3,0.26903605461120605,
0163,7,6,541.6666666666667,33.333333333333336,stimulus_1,0.0645285831773651,33.333333333333336,stimulus_1,2.62760591506958,2,0.2736091613769531,
0163,8,6,541.6666666666667,33.333333333333336,stimulus_0,0.04384644936456128,33.333333333333336,stimulus_0,0.7630329132080078,2,0.32006216049194336,
0163,9,6,583.3333333333334,33.333333333333336,stimulus_1,0.02561117919315764,33.333333333333336,stimulus_1,1.2966911792755127,2,0.4125359058380127,
0163,10,6,650.0,33.333333333333336,stimulus_1,0.01,33.333333333333336,stimulus_0,1.3929359912872314,2,0.3274390697479248,
0163,11,6,500.00000000000006,33.333333333333336,stimulus_0,0.04697067611410688,33.333333333333336,stimulus_1,1.8263239860534668,1,0.2234790325164795,
0163,12,6,691.6666666666667,33.333333333333336,stimulus_1,0.07738259742885373,33.333333333333336,stimulus_1,0.6298630237579346,1,0.22727489471435547,
0163,13,6,641.6666666666667,33.333333333333336,stimulus_1,0.06742338149549149,33.333333333333336,stimulus_1,0.7803640365600586,2,0.3936338424682617,
0163,14,6,541.6666666666667,33.333333333333336,stimulus_0,0.05838528473264548,33.333333333333336,stimulus_0,1.006075143814087,2,1.0684559345245361,
0163,15,6,666.6666666666667,33.333333333333336,stimulus_0,0.05004943180873728,33.333333333333336,stimulus_1,0.8248178958892822,1,0.5100610256195068,
0163,16,6,600.0,33.333333333333336,stimulus_0,0.07082524207210478,33.333333333333336,stimulus_1,0.6962401866912842,1,0.34111499786376953,
0163,17,6,541.6666666666667,33.333333333333336,stimulus_1,0.09002875688081813,33.333333333333336,stimulus_1,0.5652720928192139,2,0.40824389457702637,
0163,18,6,650.0,33.333333333333336,stimulus_1,0.08325653196385269,33.333333333333336,stimulus_1,0.6728470325469971,2,0.43438100814819336,
0163,19,6,525.0,33.333333333333336,stimulus_0,0.07679735183567565,33.333333333333336,stimulus_1,1.0533151626586914,1,0.4791269302368164,
0163,20,6,541.6666666666667,33.333333333333336,stimulus_1,0.09315691015568289,33.333333333333336,stimulus_1,0.6432528495788574,2,0.3768801689147949,
0163,21,6,625.0,33.333333333333336,stimulus_0,0.08738044281956753,33.333333333333336,stimulus_0,0.6127090454101562,2,0.5007741451263428,
0163,22,6,541.6666666666667,33.333333333333336,stimulus_0,0.08218867218334158,33.333333333333336,stimulus_0,0.6578388214111328,2,0.37179088592529297,
0163,23,6,675.0,33.333333333333336,stimulus_1,0.07709507930076864,33.333333333333336,stimulus_1,0.6618900299072266,2,0.3739798069000244,
0163,24,6,650.0,33.333333333333336,stimulus_1,0.0724637055924996,33.333333333333336,stimulus_1,0.5678889751434326,2,0.3566751480102539,
0163,25,6,616.6666666666667,33.333333333333336,stimulus_0,0.06785400504293676,33.333333333333336,stimulus_1,1.011866807937622,2,0.4428079128265381,
0163,26,6,600.0,33.333333333333336,stimulus_0,0.07976947286249086,33.333333333333336,stimulus_0,0.5488271713256836,2,0.5525739192962646,
0163,27,6,675.0,33.333333333333336,stimulus_1,0.07564808793702865,33.333333333333336,stimulus_1,0.6155228614807129,2,0.5051190853118896,
0163,28,6,608.3333333333334,33.333333333333336,stimulus_1,0.07181118640812528,33.333333333333336,stimulus_1,0.6753230094909668,2,0.4907841682434082,
0163,29,6,725.0,33.333333333333336,stimulus_1,0.06793870421463227,33.333333333333336,stimulus_1,0.6798369884490967,2,0.519244909286499,
0163,30,6,700.0,33.333333333333336,stimulus_0,0.06436522764456576,33.333333333333336,stimulus_0,0.5941288471221924,2,0.4479990005493164,
0163,31,6,541.6666666666667,33.333333333333336,stimulus_0,0.060745911818846754,33.333333333333336,stimulus_0,0.9334039688110352,2,0.3871419429779053,
0163,32,6,616.6666666666667,33.333333333333336,stimulus_0,0.057319549488364596,33.333333333333336,stimulus_0,1.1401288509368896,2,0.4201340675354004,
0163,33,6,750.0,33.333333333333336,stimulus_1,0.05412800824620134,33.333333333333336,stimulus_1,0.6557779312133789,1,0.4613959789276123,
0163,34,6,550.0,33.333333333333336,stimulus_0,0.05086649691002765,33.333333333333336,stimulus_1,1.0701289176940918,1,0.4895908832550049,
0163,35,6,666.6666666666667,33.333333333333336,stimulus_1,0.05921816905025884,33.333333333333336,stimulus_1,0.6672492027282715,1,0.3879861831665039,
0163,36,6,591.6666666666667,33.333333333333336,stimulus_1,0.05627001365919049,33.333333333333336,stimulus_1,2.0760600566864014,1,0.26187610626220703,
0163,37,6,591.6666666666667,33.333333333333336,stimulus_0,0.05348307676487801,33.333333333333336,stimulus_0,1.190864086151123,1,0.3051459789276123,
0163,38,6,733.3333333333334,33.333333333333336,stimulus_0,0.05060330046217809,33.333333333333336,stimulus_1,2.0891737937927246,1,0.5606281757354736,
0163,39,6,583.3333333333334,33.333333333333336,stimulus_1,0.05803147056096358,33.333333333333336,stimulus_1,3.6497440338134766,1,0.4666748046875,
0163,0,7,558.3333333333334,33.333333333333336,stimulus_0,0.4,33.333333333333336,stimulus_0,0.6675069332122803,3,0.5816669464111328,
0163,1,7,550.0,33.333333333333336,stimulus_1,0.2509879745459487,33.333333333333336,stimulus_1,0.6374878883361816,3,0.3574531078338623,
0163,2,7,666.6666666666667,33.333333333333336,stimulus_1,0.15302949805965513,33.333333333333336,stimulus_1,0.548616886138916,3,0.27420997619628906,
0163,3,7,675.0,33.333333333333336,stimulus_0,0.07447047493079645,33.333333333333336,stimulus_0,0.5623750686645508,3,0.33034205436706543,
0163,4,7,525.0,33.333333333333336,stimulus_1,0.01,33.333333333333336,stimulus_1,1.246243953704834,2,0.4347388744354248,
0163,5,7,541.6666666666667,33.333333333333336,stimulus_0,0.01,33.333333333333336,stimulus_1,0.5866270065307617,2,0.35845494270324707,
0163,6,7,558.3333333333334,33.333333333333336,stimulus_1,0.07052923220481583,33.333333333333336,stimulus_1,0.5807299613952637,2,0.32195591926574707,
0163,7,7,708.3333333333334,33.333333333333336,stimulus_0,0.04657433209187717,33.333333333333336,stimulus_1,1.392815113067627,2,0.26801586151123047,
0163,8,7,641.6666666666667,33.333333333333336,stimulus_1,0.0973886332928855,33.333333333333336,stimulus_1,0.7536110877990723,2,0.3117978572845459,
0163,9,7,625.0,33.333333333333336,stimulus_0,0.08148233627619228,33.333333333333336,stimulus_0,0.6821551322937012,2,0.30951595306396484,
0163,10,7,591.6666666666667,33.333333333333336,stimulus_0,0.06739350264530619,33.333333333333336,stimulus_0,0.728226900100708,2,0.34763288497924805,
0163,11,7,516.6666666666667,33.333333333333336,stimulus_1,0.055271501774670384,33.333333333333336,stimulus_1,0.6358869075775146,2,0.3900318145751953,
0163,12,7,550.0,33.333333333333336,stimulus_1,0.04451509075853055,33.333333333333336,stimulus_1,1.0255460739135742,2,0.3668529987335205,
0163,13,7,533.3333333333334,33.333333333333336,stimulus_0,0.03410021737666302,33.333333333333336,stimulus_1,0.8584768772125244,2,0.3965749740600586,
0163,14,7,583.3333333333334,33.333333333333336,stimulus_0,0.058013605538141055,33.333333333333336,stimulus_0,0.9428961277008057,2,0.3369271755218506,
0163,15,7,633.3333333333334,33.333333333333336,stimulus_1,0.04982774805586604,33.333333333333336,stimulus_1,0.8909258842468262,2,0.3667948246002197,
0163,16,7,600.0,33.333333333333336,stimulus_1,0.04218741109160301,33.333333333333336,stimulus_1,2.663031816482544,2,0.4086110591888428,
0163,17,7,633.3333333333334,33.333333333333336,stimulus_0,0.034937003058227445,33.333333333333336,stimulus_1,2.3458919525146484,2,0.3551759719848633,
0163,18,7,575.0,33.333333333333336,stimulus_0,0.05230777070203518,33.333333333333336,stimulus_0,0.6849949359893799,2,0.8330399990081787,
0163,19,7,733.3333333333334,33.333333333333336,stimulus_1,0.04599151980722904,33.333333333333336,stimulus_1,1.2267560958862305,2,0.3763449192047119,
0163,20,7,558.3333333333334,33.333333333333336,stimulus_0,0.04029209463965405,33.333333333333336,stimulus_1,0.7803342342376709,2,0.48410987854003906,
0163,21,7,750.0,33.333333333333336,stimulus_1,0.055207600056880135,33.333333333333336,stimulus_1,1.4840219020843506,1,0.32138490676879883,
0163,22,7,666.6666666666667,33.333333333333336,stimulus_0,0.05013212663409938,33.333333333333336,stimulus_0,0.8278090953826904,1,0.5031590461730957,
0163,23,7,525.0,33.333333333333336,stimulus_1,0.04518935430737053,33.333333333333336,stimulus_0,0.8255200386047363,1,0.41519618034362793,
0163,24,7,750.0,33.333333333333336,stimulus_1,0.05841831835496358,33.333333333333336,stimulus_1,1.5877060890197754,2,0.5623009204864502,
0163,25,7,516.6666666666667,33.333333333333336,stimulus_0,0.053988821083752636,33.333333333333336,stimulus_1,1.0989391803741455,1,0.2982511520385742,
0163,26,7,525.0,33.333333333333336,stimulus_0,0.06536157333655251,33.333333333333336,stimulus_0,1.1537458896636963,1,0.4570350646972656,
0163,27,7,525.0,33.333333333333336,stimulus_1,0.0613447417474019,33.333333333333336,stimulus_1,0.6796400547027588,2,0.46001195907592773,
0163,28,7,633.3333333333334,33.333333333333336,stimulus_1,0.05732659597247308,33.333333333333336,stimulus_1,1.7015881538391113,2,0.4193727970123291,
0163,29,7,591.6666666666667,33.333333333333336,stimulus_0,0.053624306167336155,33.333333333333336,stimulus_0,0.6544609069824219,2,0.34708595275878906,
0163,30,7,608.3333333333334,33.333333333333336,stimulus_1,0.04986596773494545,33.333333333333336,stimulus_1,1.8150720596313477,2,0.5197679996490479,
0163,31,7,600.0,33.333333333333336,stimulus_0,0.04636700396638144,33.333333333333336,stimulus_1,1.4258220195770264,2,0.7341098785400391,
0163,32,7,500.00000000000006,33.333333333333336,stimulus_1,0.05588475404668525,33.333333333333336,stimulus_0,0.7924871444702148,2,0.45516395568847656,
0163,33,7,575.0,33.333333333333336,stimulus_1,0.06515828521925637,33.333333333333336,stimulus_1,0.7617189884185791,2,0.44692492485046387,
0163,34,7,741.6666666666667,33.333333333333336,stimulus_0,0.06208043696216814,33.333333333333336,stimulus_0,2.1469550132751465,2,0.40782809257507324,
0163,35,7,625.0,33.333333333333336,stimulus_0,0.058918643220668754,33.333333333333336,stimulus_0,0.7691771984100342,2,0.4139430522918701,
0163,36,7,733.3333333333334,33.333333333333336,stimulus_1,0.055978887569141045,33.333333333333336,stimulus_0,1.4445688724517822,2,0.3106698989868164,
0163,37,7,583.3333333333334,33.333333333333336,stimulus_1,0.06416026116891971,33.333333333333336,stimulus_1,0.8417048454284668,2,0.34328699111938477,
0163,38,7,666.6666666666667,33.333333333333336,stimulus_0,0.06126826464350432,33.333333333333336,stimulus_0,1.4905040264129639,1,0.35739779472351074,
0163,39,7,625.0,33.333333333333336,stimulus_0,0.058480375570423127,33.333333333333336,stimulus_0,1.7531700134277344,1,0.41138195991516113,
0163,0,8,650.0,33.333333333333336,stimulus_0,0.4,33.333333333333336,stimulus_0,0.6424689292907715,3,0.4527320861816406,
0163,1,8,583.3333333333334,33.333333333333336,stimulus_1,0.2509879745459487,33.333333333333336,stimulus_1,0.6613109111785889,3,0.3231689929962158,
0163,2,8,591.6666666666667,33.333333333333336,stimulus_1,0.15302949805965513,33.333333333333336,stimulus_1,0.5167241096496582,3,0.32530903816223145,
0163,3,8,625.0,33.333333333333336,stimulus_0,0.07447047493079645,33.333333333333336,stimulus_0,0.6822388172149658,3,0.35846805572509766,
0163,4,8,525.0,33.333333333333336,stimulus_0,0.01,33.333333333333336,stimulus_1,1.3021581172943115,2,0.9811358451843262,
0163,5,8,741.6666666666667,33.333333333333336,stimulus_1,0.1153395389209863,33.333333333333336,stimulus_1,0.680243968963623,3,0.500511884689331,
0163,6,8,516.6666666666667,33.333333333333336,stimulus_1,0.08765518823841861,33.333333333333336,stimulus_1,0.6586911678314209,2,0.5896000862121582,
0163,7,8,516.6666666666667,33.333333333333336,stimulus_0,0.0645285831773651,33.333333333333336,stimulus_1,2.0525529384613037,1,0.2904641628265381,
0163,8,8,583.3333333333334,33.333333333333336,stimulus_1,0.11258013320446575,33.333333333333336,stimulus_1,1.2468421459197998,3,1.4552929401397705,
0163,9,8,508.33333333333337,33.333333333333336,stimulus_0,0.0963927941734074,33.333333333333336,stimulus_0,0.9816429615020752,3,0.37593507766723633,
0163,10,8,683.3333333333334,33.333333333333336,stimulus_0,0.08286970784233239,33.333333333333336,stimulus_0,0.6864299774169922,3,0.3503589630126953,
0163,11,8,675.0,33.333333333333336,stimulus_1,0.07035695489306293,33.333333333333336,stimulus_1,0.6472070217132568,3,0.9697880744934082,
0163,12,8,683.3333333333334,33.333333333333336,stimulus_0,0.059237386324505314,33.333333333333336,stimulus_1,1.373647928237915,2,0.3440389633178711,
0163,13,8,658.3333333333334,33.333333333333336,stimulus_1,0.085919092254439,33.333333333333336,stimulus_1,0.8389859199523926,1,0.5917308330535889,
0163,14,8,650.0,33.333333333333336,stimulus_1,0.07718909625005899,33.333333333333336,stimulus_1,0.9479701519012451,2,0.5155618190765381,
0163,15,8,575.0,33.333333333333336,stimulus_0,0.06910052809113487,33.333333333333336,stimulus_0,0.8260688781738281,1,0.6112592220306396,
0163,16,8,725.0,33.333333333333336,stimulus_1,0.06152792669936141,33.333333333333336,stimulus_1,1.2107160091400146,1,0.34552907943725586,
0163,17,8,558.3333333333334,33.333333333333336,stimulus_0,0.05432920415287473,33.333333333333336,stimulus_1,1.8348479270935059,1,0.7219099998474121,
0163,18,8,500.00000000000006,33.333333333333336,stimulus_0,0.07174159826828652,33.333333333333336,stimulus_0,0.8880360126495361,2,0.5032711029052734,
0163,19,8,750.0,33.333333333333336,stimulus_1,0.06548076995727692,33.333333333333336,stimulus_1,0.7728829383850098,2,0.38457393646240234,
0163,20,8,633.3333333333334,33.333333333333336,stimulus_1,0.05981051915329766,33.333333333333336,stimulus_1,1.3398058414459229,2,0.5826840400695801,
0163,21,8,541.6666666666667,33.333333333333336,stimulus_0,0.054317014762951976,33.333333333333336,stimulus_0,0.7289741039276123,2,0.41158390045166016,
0163,22,8,541.6666666666667,33.333333333333336,stimulus_0,0.04890737314758886,33.333333333333336,stimulus_0,2.0687639713287354,1,0.3410818576812744,
0163,23,8,550.0,33.333333333333336,stimulus_1,0.04396073018424873,33.333333333333336,stimulus_1,1.7573449611663818,2,0.38199400901794434,
0163,24,8,725.0,33.333333333333336,stimulus_0,0.039027318666390254,33.333333333333336,stimulus_1,1.1326308250427246,1,0.32659196853637695,
0163,25,8,641.6666666666667,33.333333333333336,stimulus_0,0.051589426161207874,33.333333333333336,stimulus_0,1.3327789306640625,2,0.4037749767303467,
0163,26,8,600.0,33.333333333333336,stimulus_1,0.0472037570553101,33.333333333333336,stimulus_1,1.8061001300811768,1,0.8544700145721436,
0163,27,8,633.3333333333334,33.333333333333336,stimulus_1,0.04315712255494564,33.333333333333336,stimulus_1,1.0510549545288086,2,0.4073770046234131,
0163,28,8,525.0,33.333333333333336,stimulus_0,0.03905309604499396,33.333333333333336,stimulus_0,2.2542529106140137,2,0.5722930431365967,
0163,29,8,541.6666666666667,33.333333333333336,stimulus_1,0.035239120326585216,33.333333333333336,stimulus_1,1.5266189575195312,2,0.49696898460388184,
0163,30,8,516.6666666666667,33.333333333333336,stimulus_1,0.031643268543945946,33.333333333333336,stimulus_0,0.957550048828125,1,0.37137508392333984,
0163,31,8,641.6666666666667,33.333333333333336,stimulus_0,0.041362150732377534,33.333333333333336,stimulus_0,1.0615038871765137,1,0.3885989189147949,
0163,32,8,733.3333333333334,33.333333333333336,stimulus_0,0.03786832929099321,33.333333333333336,stimulus_1,1.1577978134155273,1,0.40075182914733887,
0163,33,8,750.0,33.333333333333336,stimulus_1,0.04710462308284413,33.333333333333336,stimulus_1,1.3295621871948242,1,0.39374303817749023,
0163,34,8,741.6666666666667,33.333333333333336,stimulus_1,0.04400130034584654,33.333333333333336,stimulus_1,2.0108020305633545,2,0.38201284408569336,
0163,35,8,591.6666666666667,33.333333333333336,stimulus_0,0.04082182048332311,33.333333333333336,stimulus_1,1.1501750946044922,1,0.3894369602203369,
0163,36,8,725.0,33.333333333333336,stimulus_0,0.04897721606014144,33.333333333333336,stimulus_0,0.9028098583221436,2,0.45110297203063965,
0163,37,8,675.0,33.333333333333336,stimulus_1,0.04610665276026105,33.333333333333336,stimulus_1,2.263767957687378,1,0.36955809593200684,
0163,38,8,741.6666666666667,33.333333333333336,stimulus_1,0.043386364617589546,33.333333333333336,stimulus_0,1.6661748886108398,1,0.39162492752075195,
0163,39,8,558.3333333333334,33.333333333333336,stimulus_0,0.05072028243083959,33.333333333333336,stimulus_0,0.9813690185546875,1,0.3534688949584961,
0163,0,9,625.0,33.333333333333336,stimulus_1,0.4,33.333333333333336,stimulus_1,0.7354109287261963,2,0.649446964263916,
0163,1,9,600.0,33.333333333333336,stimulus_0,0.2509879745459487,33.333333333333336,stimulus_0,0.5631909370422363,3,0.33347201347351074,
0163,2,9,508.33333333333337,33.333333333333336,stimulus_1,0.15302949805965513,33.333333333333336,stimulus_1,1.370776891708374,3,0.3502030372619629,
0163,3,9,583.3333333333334,33.333333333333336,stimulus_0,0.07447047493079645,33.333333333333336,stimulus_0,0.8967928886413574,3,0.33031296730041504,
0163,4,9,500.00000000000006,33.333333333333336,stimulus_1,0.01,33.333333333333336,stimulus_1,1.2212049961090088,3,0.6417100429534912,
0163,5,9,700.0,33.333333333333336,stimulus_0,0.01,33.333333333333336,stimulus_1,0.6842989921569824,3,0.34339094161987305,
0163,6,9,541.6666666666667,33.333333333333336,stimulus_1,0.07052923220481583,33.333333333333336,stimulus_1,0.647589921951294,2,0.4895970821380615,
0163,7,9,733.3333333333334,33.333333333333336,stimulus_0,0.04657433209187717,33.333333333333336,stimulus_1,0.6904458999633789,2,0.3242919445037842,
0163,8,9,625.0,33.333333333333336,stimulus_0,0.0973886332928855,33.333333333333336,stimulus_0,0.5816128253936768,3,0.5643868446350098,
0163,9,9,750.0,33.333333333333336,stimulus_0,0.08148233627619228,33.333333333333336,stimulus_0,0.8917880058288574,2,0.3364260196685791,
0163,10,9,666.6666666666667,33.333333333333336,stimulus_1,0.06739350264530619,33.333333333333336,stimulus_1,0.8961122035980225,3,0.5437572002410889,
0163,11,9,666.6666666666667,33.333333333333336,stimulus_1,0.055271501774670384,33.333333333333336,stimulus_1,2.0689640045166016,2,0.31378912925720215,
0163,12,9,750.0,33.333333333333336,stimulus_0,0.04451509075853055,33.333333333333336,stimulus_1,0.8116719722747803,2,0.46424317359924316,
0163,13,9,741.6666666666667,33.333333333333336,stimulus_1,0.07026409163521607,33.333333333333336,stimulus_1,0.6826419830322266,2,0.39397311210632324,
0163,14,9,666.6666666666667,33.333333333333336,stimulus_0,0.061253613515728444,33.333333333333336,stimulus_0,0.9700989723205566,3,1.3330130577087402,
0163,15,9,550.0,33.333333333333336,stimulus_1,0.05294023905959366,33.333333333333336,stimulus_1,0.5633809566497803,2,0.3183920383453369,
0163,16,9,716.6666666666667,33.333333333333336,stimulus_1,0.04515588919157659,33.333333333333336,stimulus_1,0.816615104675293,2,0.39803194999694824,
0163,17,9,558.3333333333334,33.333333333333336,stimulus_1,0.03824413857691261,33.333333333333336,stimulus_1,0.9938790798187256,3,0.5256550312042236,
0163,18,9,550.0,33.333333333333336,stimulus_0,0.031651655235076626,33.333333333333336,stimulus_1,0.8605368137359619,2,0.39059996604919434,
0163,19,9,691.6666666666667,33.333333333333336,stimulus_0,0.04836734228302869,33.333333333333336,stimulus_0,1.6535460948944092,1,0.3384091854095459,
0163,20,9,541.6666666666667,33.333333333333336,stimulus_0,0.04261766418961943,33.333333333333336,stimulus_1,0.9015538692474365,1,0.35770297050476074,
0163,21,9,691.6666666666667,33.333333333333336,stimulus_1,0.05723502274968273,33.333333333333336,stimulus_1,1.298130989074707,2,0.3886120319366455,
0163,22,9,733.3333333333334,33.333333333333336,stimulus_0,0.052131446098736434,33.333333333333336,stimulus_1,0.7997879981994629,2,0.36707305908203125,
0163,23,9,666.6666666666667,33.333333333333336,stimulus_1,0.06535499854947974,33.333333333333336,stimulus_1,2.2589871883392334,2,0.5503811836242676,
0163,24,9,683.3333333333334,33.333333333333336,stimulus_1,0.06075763137932466,33.333333333333336,stimulus_1,0.7002029418945312,2,0.4980349540710449,
0163,25,9,641.6666666666667,33.333333333333336,stimulus_0,0.0562300592611657,33.333333333333336,stimulus_1,0.9075109958648682,2,0.48151111602783203,
0163,26,9,708.3333333333334,33.333333333333336,stimulus_1,0.06824696537063524,33.333333333333336,stimulus_1,0.7378900051116943,2,0.3689148426055908,
0163,27,9,641.6666666666667,33.333333333333336,stimulus_0,0.06418168508423872,33.333333333333336,stimulus_0,0.9282920360565186,2,0.47266101837158203,
0163,28,9,508.33333333333337,33.333333333333336,stimulus_1,0.060097361140246774,33.333333333333336,stimulus_1,1.0942599773406982,2,0.4600398540496826,
0163,29,9,725.0,33.333333333333336,stimulus_0,0.05630977797752024,33.333333333333336,stimulus_1,1.6008939743041992,2,0.3765900135040283,
0163,30,9,575.0,33.333333333333336,stimulus_1,0.06654122056774836,33.333333333333336,stimulus_1,0.9974520206451416,2,0.5200860500335693,
0163,31,9,541.6666666666667,33.333333333333336,stimulus_0,0.06311673912304205,33.333333333333336,stimulus_0,1.970141887664795,2,0.44208812713623047,
0163,32,9,616.6666666666667,33.333333333333336,stimulus_0,0.05961925498430709,33.333333333333336,stimulus_0,1.3943779468536377,3,1.0439491271972656,
0163,33,9,508.33333333333337,33.333333333333336,stimulus_1,0.05636404252855237,33.333333333333336,stimulus_1,0.6726820468902588,2,0.4213831424713135,
0163,34,9,558.3333333333334,33.333333333333336,stimulus_0,0.053306815482182024,33.333333333333336,stimulus_1,0.8560779094696045,2,0.4544181823730469,
0163,35,9,508.33333333333337,33.333333333333336,stimulus_1,0.0614913861032621,33.333333333333336,stimulus_0,1.6991150379180908,2,0.39311909675598145,
0163,36,9,750.0,33.333333333333336,stimulus_1,0.0695497756995701,33.333333333333336,stimulus_1,0.9402310848236084,2,1.2923059463500977,
0163,37,9,741.6666666666667,33.333333333333336,stimulus_0,0.0666559155906925,33.333333333333336,stimulus_1,0.9397408962249756,2,0.36849093437194824,
0163,38,9,675.0,33.333333333333336,stimulus_1,0.07462028946899885,33.333333333333336,stimulus_1,0.8721828460693359,2,0.3922748565673828,
0163,39,9,608.3333333333334,33.333333333333336,stimulus_0,0.07178771987148364,33.333333333333336,stimulus_0,0.6079380512237549,2,0.41503310203552246,
