subject,trial_number,staircase_number,fixation_duration_ms,target_duration_ms,target_type,target_contrast,mask_duration_ms,objective_response,objective_response_time_ms,subjective_response,subjective_response_time_ms
0164,0,0,550.0,33.333333333333336,stimulus_0,0.4,33.333333333333336,stimulus_0,1.1828670501708984,2,0.9597170352935791,
0164,1,0,575.0,33.333333333333336,stimulus_0,0.2509879745459487,33.333333333333336,stimulus_0,1.1490681171417236,2,0.9604229927062988,
0164,2,0,500.00000000000006,33.333333333333336,stimulus_1,0.15302949805965513,33.333333333333336,stimulus_1,0.9903209209442139,3,0.8082840442657471,
0164,3,0,533.3333333333334,33.333333333333336,stimulus_1,0.07447047493079645,33.333333333333336,stimulus_0,1.52516508102417,1,0.7070169448852539,
0164,4,0,616.6666666666667,33.333333333333336,stimulus_0,0.19116438799299137,33.333333333333336,stimulus_0,1.9600350856781006,2,0.8127048015594482,
0164,5,0,608.3333333333334,33.333333333333336,stimulus_1,0.15879956701154668,33.333333333333336,stimulus_1,1.108855962753296,2,0.9345359802246094,
0164,6,0,575.0,33.333333333333336,stimulus_0,0.1332385462073028,33.333333333333336,stimulus_0,1.0799620151519775,3,0.7030839920043945,
0164,7,0,533.3333333333334,33.333333333333336,stimulus_1,0.11113684036651211,33.333333333333336,stimulus_1,1.513458013534546,1,0.6301870346069336,
0164,8,0,658.3333333333334,33.333333333333336,stimulus_1,0.09207196720633948,33.333333333333336,stimulus_1,1.3595860004425049,1,0.7993338108062744,
0164,9,0,575.0,33.333333333333336,stimulus_0,0.07481368503589986,33.333333333333336,stimulus_0,1.2112128734588623,2,1.0236971378326416,
0164,10,0,600.0,33.333333333333336,stimulus_1,0.058608724895684416,33.333333333333336,stimulus_1,0.9466409683227539,3,0.7382731437683105,
0164,11,0,541.6666666666667,33.333333333333336,stimulus_0,0.04390867517088631,33.333333333333336,stimulus_0,1.0530140399932861,2,0.8510689735412598,
0164,12,0,600.0,33.333333333333336,stimulus_1,0.02921447825433182,33.333333333333336,stimulus_0,1.2677240371704102,2,0.8772871494293213,
0164,13,0,733.3333333333334,33.333333333333336,stimulus_1,0.06363181008357627,33.333333333333336,stimulus_1,1.0714318752288818,2,1.1091139316558838,
0164,14,0,600.0,33.333333333333336,stimulus_0,0.05372982411263444,33.333333333333336,stimulus_0,1.2332720756530762,2,1.503148078918457,
0164,15,0,625.0,33.333333333333336,stimulus_0,0.04445162978019945,33.333333333333336,stimulus_0,1.7415430545806885,1,0.7797999382019043,
0164,16,0,608.3333333333334,33.333333333333336,stimulus_1,0.035645819250160304,33.333333333333336,stimulus_1,1.5022358894348145,2,0.8684971332550049,
0164,17,0,541.6666666666667,33.333333333333336,stimulus_0,0.027735074953734284,33.333333333333336,stimulus_0,1.1638050079345703,2,0.9985940456390381,
0164,18,0,658.3333333333334,33.333333333333336,stimulus_1,0.020064666072631243,33.333333333333336,stimulus_1,1.1537351608276367,2,0.8269569873809814,
0164,19,0,516.6666666666667,33.333333333333336,stimulus_0,0.012522893700594895,33.333333333333336,stimulus_0,1.6301031112670898,1,0.7324869632720947,
0164,20,0,725.0,33.333333333333336,stimulus_0,0.01,33.333333333333336,stimulus_1,3.5191218852996826,2,0.6301259994506836,
0164,21,0,608.3333333333334,33.333333333333336,stimulus_0,0.02449382367539321,33.333333333333336,stimulus_1,1.9765310287475586,1,0.5484981536865234,
0164,22,0,683.3333333333334,33.333333333333336,stimulus_1,0.03966826159403164,33.333333333333336,stimulus_1,1.3822858333587646,2,0.7603659629821777,
0164,23,0,516.6666666666667,33.333333333333336,stimulus_1,0.0343738374928198,33.333333333333336,stimulus_1,3.0449299812316895,1,0.4490668773651123,
0164,24,0,666.6666666666667,33.333333333333336,stimulus_0,0.029125214897293195,33.333333333333336,stimulus_0,1.1679799556732178,2,0.8386678695678711,
0164,25,0,550.0,33.333333333333336,stimulus_0,0.024290460176199735,33.333333333333336,stimulus_1,1.58900785446167,1,0.9567108154296875,
0164,26,0,566.6666666666667,33.333333333333336,stimulus_1,0.036584882097209726,33.333333333333336,stimulus_0,1.4546730518341064,2,0.7657690048217773,
0164,27,0,508.33333333333337,33.333333333333336,stimulus_1,0.04877408951721662,33.333333333333336,stimulus_1,1.479923963546753,2,0.8280131816864014,
0164,28,0,666.6666666666667,33.333333333333336,stimulus_1,0.04467655499363471,33.333333333333336,stimulus_1,1.7118258476257324,1,0.5055961608886719,
0164,29,0,550.0,33.333333333333336,stimulus_1,0.040561740774071764,33.333333333333336,stimulus_0,1.2244150638580322,2,0.8904581069946289,
0164,30,0,733.3333333333334,33.333333333333336,stimulus_0,0.05099987630002756,33.333333333333336,stimulus_0,1.8044581413269043,1,0.7095050811767578,
0164,31,0,675.0,33.333333333333336,stimulus_0,0.0472761456753491,33.333333333333336,stimulus_1,1.111875057220459,1,0.5225210189819336,
0164,32,0,600.0,33.333333333333336,stimulus_1,0.057167532904784546,33.333333333333336,stimulus_1,2.2802281379699707,2,0.6876800060272217,
0164,33,0,600.0,33.333333333333336,stimulus_0,0.05383823619092526,33.333333333333336,stimulus_0,1.0975120067596436,3,0.6225500106811523,
0164,34,0,541.6666666666667,33.333333333333336,stimulus_0,0.05043981985549173,33.333333333333336,stimulus_0,1.728977918624878,2,0.6567111015319824,
0164,35,0,525.0,33.333333333333336,stimulus_1,0.04722540807951281,33.333333333333336,stimulus_1,1.9605000019073486,1,0.44224095344543457,
0164,36,0,608.3333333333334,33.333333333333336,stimulus_0,0.044221154412741215,33.333333333333336,stimulus_0,1.2929561138153076,2,0.5780539512634277,
0164,37,0,516.6666666666667,33.333333333333336,stimulus_1,0.04114556178269568,33.333333333333336,stimulus_0,1.6591808795928955,1,0.9083361625671387,
0164,38,0,633.3333333333334,33.333333333333336,stimulus_0,0.04902263215681951,33.333333333333336,stimulus_0,2.1891109943389893,2,0.6169159412384033,
0164,39,0,750.0,33.333333333333336,stimulus_1,0.046233655369268045,33.333333333333336,stimulus_1,1.1669180393218994,2,0.6713368892669678,
0164,0,1,683.3333333333334,33.333333333333336,stimulus_1,0.4,33.333333333333336,stimulus_0,1.1597480773925781,2,1.0023438930511475,
0164,1,1,666.6666666666667,33.333333333333336,stimulus_0,0.6431098143584852,33.333333333333336,stimulus_0,1.224275827407837,2,0.797720193862915,
0164,2,1,516.6666666666667,33.333333333333336,stimulus_1,0.5620020274253117,33.333333333333336,stimulus_1,0.9321238994598389,3,0.6003270149230957,
0164,3,1,683.3333333333334,33.333333333333336,stimulus_0,0.5133116582634316,33.333333333333336,stimulus_0,1.4816868305206299,2,0.715735912322998,
0164,4,1,500.00000000000006,33.333333333333336,stimulus_0,0.47731000462160866,33.333333333333336,stimulus_0,0.893139123916626,4,0.3706240653991699,
0164,5,1,750.0,33.333333333333336,stimulus_1,0.4492323609778033,33.333333333333336,stimulus_1,0.9178049564361572,3,0.5502510070800781,
0164,6,1,700.0,33.333333333333336,stimulus_1,0.42493891836841796,33.333333333333336,stimulus_1,1.3870489597320557,3,0.6527059078216553,
0164,7,1,733.3333333333334,33.333333333333336,stimulus_0,0.40244342561762325,33.333333333333336,stimulus_0,0.9221019744873047,4,0.4346020221710205,
0164,8,1,716.6666666666667,33.333333333333336,stimulus_1,0.3818376435872739,33.333333333333336,stimulus_1,0.9673590660095215,4,0.48885393142700195,
0164,9,1,516.6666666666667,33.333333333333336,stimulus_1,0.36197507359786474,33.333333333333336,stimulus_1,0.987678050994873,3,0.8324489593505859,
0164,10,1,516.6666666666667,33.333333333333336,stimulus_0,0.3418060980871992,33.333333333333336,stimulus_1,1.6734390258789062,1,0.8738610744476318,
0164,11,1,741.6666666666667,33.333333333333336,stimulus_0,0.3874328797876013,33.333333333333336,stimulus_0,1.037153959274292,4,0.5149831771850586,
0164,12,1,750.0,33.333333333333336,stimulus_0,0.3764908599300954,33.333333333333336,stimulus_0,1.0192809104919434,4,0.8238980770111084,
0164,13,1,691.6666666666667,33.333333333333336,stimulus_1,0.3663892418274223,33.333333333333336,stimulus_1,0.8499000072479248,4,0.8107519149780273,
0164,14,1,583.3333333333334,33.333333333333336,stimulus_0,0.35690056463912334,33.333333333333336,stimulus_0,1.4088611602783203,3,0.5538070201873779,
0164,15,1,650.0,33.333333333333336,stimulus_1,0.3478478316435681,33.333333333333336,stimulus_1,0.898853063583374,3,0.5926220417022705,
0164,16,1,658.3333333333334,33.333333333333336,stimulus_1,0.3390848969400852,33.333333333333336,stimulus_1,1.0422420501708984,3,0.650601863861084,
0164,17,1,683.3333333333334,33.333333333333336,stimulus_0,0.3304712776182265,33.333333333333336,stimulus_0,1.109130859375,3,0.6208269596099854,
0164,18,1,525.0,33.333333333333336,stimulus_0,0.3218386801171061,33.333333333333336,stimulus_0,0.9968421459197998,4,1.02162504196167,
0164,19,1,725.0,33.333333333333336,stimulus_1,0.31303843113513274,33.333333333333336,stimulus_1,2.6233808994293213,3,0.5636730194091797,
0164,20,1,533.3333333333334,33.333333333333336,stimulus_1,0.30387968632634804,33.333333333333336,stimulus_1,1.34505295753479,3,0.9272618293762207,
0164,21,1,566.6666666666667,33.333333333333336,stimulus_0,0.2941039437056879,33.333333333333336,stimulus_0,1.1187870502471924,3,1.0828619003295898,
0164,22,1,550.0,33.333333333333336,stimulus_1,0.2833412414440454,33.333333333333336,stimulus_1,0.9766840934753418,3,2.2393240928649902,
0164,23,1,575.0,33.333333333333336,stimulus_0,0.2710565065361541,33.333333333333336,stimulus_0,0.8291981220245361,4,0.6364350318908691,
0164,24,1,616.6666666666667,33.333333333333336,stimulus_1,0.2560845792898186,33.333333333333336,stimulus_1,1.0460238456726074,4,1.5815589427947998,
0164,25,1,575.0,33.333333333333336,stimulus_1,0.23698806140925488,33.333333333333336,stimulus_1,0.9761068820953369,3,0.8533101081848145,
0164,26,1,708.3333333333334,33.333333333333336,stimulus_0,0.20791633380184613,33.333333333333336,stimulus_1,1.7932448387145996,2,0.7240819931030273,
0164,27,1,733.3333333333334,33.333333333333336,stimulus_0,0.2696466946917101,33.333333333333336,stimulus_1,2.0869510173797607,2,0.7684779167175293,
0164,28,1,525.0,33.333333333333336,stimulus_0,0.28937472327401076,33.333333333333336,stimulus_1,1.8879499435424805,1,0.6590900421142578,
0164,29,1,708.3333333333334,33.333333333333336,stimulus_0,0.30366690310178807,33.333333333333336,stimulus_0,1.9989311695098877,1,0.8753161430358887,
0164,30,1,591.6666666666667,33.333333333333336,stimulus_1,0.2989934732966781,33.333333333333336,stimulus_1,0.7422518730163574,2,0.6788780689239502,
0164,31,1,666.6666666666667,33.333333333333336,stimulus_1,0.29457113569150223,33.333333333333336,stimulus_1,1.1058318614959717,2,0.7669000625610352,
0164,32,1,708.3333333333334,33.333333333333336,stimulus_1,0.2900684268155155,33.333333333333336,stimulus_1,1.0386919975280762,3,1.6031599044799805,
0164,33,1,666.6666666666667,33.333333333333336,stimulus_0,0.28572603082196507,33.333333333333336,stimulus_0,0.882044792175293,3,0.5583479404449463,
0164,34,1,725.0,33.333333333333336,stimulus_0,0.2816097124660152,33.333333333333336,stimulus_1,1.7143769264221191,2,0.6694650650024414,
0164,35,1,633.3333333333334,33.333333333333336,stimulus_1,0.2927612667756623,33.333333333333336,stimulus_1,0.8810420036315918,3,0.7451350688934326,
0164,36,1,575.0,33.333333333333336,stimulus_0,0.28894638745267387,33.333333333333336,stimulus_0,1.6931729316711426,2,1.4185218811035156,
0164,37,1,525.0,33.333333333333336,stimulus_0,0.2853135182641213,33.333333333333336,stimulus_1,2.0088400840759277,2,0.5865411758422852,
0164,38,1,675.0,33.333333333333336,stimulus_1,0.2953701128115488,33.333333333333336,stimulus_1,1.406831979751587,2,0.8009099960327148,
0164,39,1,641.6666666666667,33.333333333333336,stimulus_1,0.29221468535792755,33.333333333333336,stimulus_1,1.8799779415130615,2,0.7040221691131592,
0164,0,2,675.0,33.333333333333336,stimulus_1,0.4,33.333333333333336,stimulus_1,0.8476500511169434,3,1.4802179336547852,
0164,1,2,566.6666666666667,33.333333333333336,stimulus_0,0.2509879745459487,33.333333333333336,stimulus_0,0.866037130355835,3,1.1255528926849365,
0164,2,2,566.6666666666667,33.333333333333336,stimulus_1,0.15302949805965513,33.333333333333336,stimulus_1,0.8294141292572021,2,0.6085960865020752,
0164,3,2,625.0,33.333333333333336,stimulus_0,0.07447047493079645,33.333333333333336,stimulus_1,1.0370588302612305,2,0.6017870903015137,
0164,4,2,541.6666666666667,33.333333333333336,stimulus_0,0.19116438799299137,33.333333333333336,stimulus_0,1.817883014678955,2,0.8262028694152832,
0164,5,2,566.6666666666667,33.333333333333336,stimulus_1,0.15879956701154668,33.333333333333336,stimulus_1,1.607292890548706,2,1.0614988803863525,
0164,6,2,516.6666666666667,33.333333333333336,stimulus_1,0.1332385462073028,33.333333333333336,stimulus_1,1.8230018615722656,2,0.7765119075775146,
0164,7,2,566.6666666666667,33.333333333333336,stimulus_0,0.11113684036651211,33.333333333333336,stimulus_0,1.8458659648895264,2,0.7229390144348145,
0164,8,2,733.3333333333334,33.333333333333336,stimulus_0,0.09207196720633948,33.333333333333336,stimulus_0,2.765383005142212,1,1.3707318305969238,
0164,9,2,525.0,33.333333333333336,stimulus_1,0.07481368503589986,33.333333333333336,stimulus_1,1.7175118923187256,2,1.3079431056976318,
0164,10,2,508.33333333333337,33.333333333333336,stimulus_0,0.058608724895684416,33.333333333333336,stimulus_0,1.476848840713501,3,0.7018558979034424,
0164,11,2,591.6666666666667,33.333333333333336,stimulus_1,0.04390867517088631,33.333333333333336,stimulus_0,1.7127649784088135,2,0.6777279376983643,
0164,12,2,658.3333333333334,33.333333333333336,stimulus_0,0.0781486005099774,33.333333333333336,stimulus_1,1.9000840187072754,1,0.4900550842285156,
0164,13,2,633.3333333333334,33.333333333333336,stimulus_1,0.10532658985283194,33.333333333333336,stimulus_0,2.240035057067871,1,0.707676887512207,
0164,14,2,691.6666666666667,33.333333333333336,stimulus_1,0.1299709493756417,33.333333333333336,stimulus_1,2.3350532054901123,1,0.8259849548339844,
0164,15,2,516.6666666666667,33.333333333333336,stimulus_0,0.12170960901983652,33.333333333333336,stimulus_1,2.520752191543579,2,0.7222468852996826,
0164,16,2,508.33333333333337,33.333333333333336,stimulus_1,0.14186800449511794,33.333333333333336,stimulus_1,2.1807069778442383,1,0.7296421527862549,
0164,17,2,666.6666666666667,33.333333333333336,stimulus_0,0.13461541918669612,33.333333333333336,stimulus_0,1.3562300205230713,2,0.7627160549163818,
0164,18,2,700.0,33.333333333333336,stimulus_1,0.12777208068233148,33.333333333333336,stimulus_1,1.1960949897766113,2,0.5985209941864014,
0164,19,2,691.6666666666667,33.333333333333336,stimulus_0,0.1216960185479532,33.333333333333336,stimulus_0,1.561905860900879,2,1.169645071029663,
0164,20,2,575.0,33.333333333333336,stimulus_0,0.1158318779380324,33.333333333333336,stimulus_0,1.0606749057769775,2,0.7023839950561523,
0164,21,2,741.6666666666667,33.333333333333336,stimulus_1,0.11051503856958311,33.333333333333336,stimulus_1,1.2803959846496582,1,0.47152185440063477,
0164,22,2,750.0,33.333333333333336,stimulus_1,0.10533322593916195,33.333333333333336,stimulus_1,1.4736030101776123,2,0.6190438270568848,
0164,23,2,716.6666666666667,33.333333333333336,stimulus_0,0.1005654414743462,33.333333333333336,stimulus_0,0.9693970680236816,2,0.9419159889221191,
0164,24,2,658.3333333333334,33.333333333333336,stimulus_1,0.09585997228463766,33.333333333333336,stimulus_1,1.786531925201416,2,1.1142339706420898,
0164,25,2,700.0,33.333333333333336,stimulus_0,0.09150920156393028,33.333333333333336,stimulus_0,1.6385459899902344,2,0.8231890201568604,
0164,26,2,575.0,33.333333333333336,stimulus_1,0.08714224739326604,33.333333333333336,stimulus_1,1.2482309341430664,2,1.188755989074707,
0164,27,2,666.6666666666667,33.333333333333336,stimulus_0,0.08310571677852363,33.333333333333336,stimulus_0,1.3312838077545166,2,1.5063080787658691,
0164,28,2,525.0,33.333333333333336,stimulus_1,0.07900519052838251,33.333333333333336,stimulus_1,1.2352290153503418,3,0.8377511501312256,
0164,29,2,541.6666666666667,33.333333333333336,stimulus_0,0.07518740801426349,33.333333333333336,stimulus_0,0.9997851848602295,2,0.7056169509887695,
0164,30,2,566.6666666666667,33.333333333333336,stimulus_1,0.07158306255854396,33.333333333333336,stimulus_1,1.2596499919891357,2,1.1623799800872803,
0164,31,2,591.6666666666667,33.333333333333336,stimulus_0,0.06788947711062393,33.333333333333336,stimulus_1,1.5139830112457275,2,1.2097129821777344,
0164,32,2,741.6666666666667,33.333333333333336,stimulus_1,0.07762745095211415,33.333333333333336,stimulus_1,1.9698421955108643,2,1.5900578498840332,
0164,33,2,558.3333333333334,33.333333333333336,stimulus_0,0.0743759133561458,33.333333333333336,stimulus_0,2.0699257850646973,2,0.6752979755401611,
0164,34,2,625.0,33.333333333333336,stimulus_0,0.07105335294574139,33.333333333333336,stimulus_0,1.391045093536377,2,0.796544075012207,
0164,35,2,683.3333333333334,33.333333333333336,stimulus_1,0.06785375460599019,33.333333333333336,stimulus_1,1.9360570907592773,2,0.5717380046844482,
0164,36,2,558.3333333333334,33.333333333333336,stimulus_1,0.06485480308672409,33.333333333333336,stimulus_1,1.317479133605957,2,0.7209248542785645,
0164,37,2,541.6666666666667,33.333333333333336,stimulus_1,0.06178631984848931,33.333333333333336,stimulus_1,1.4663100242614746,2,0.6517047882080078,
0164,38,2,683.3333333333334,33.333333333333336,stimulus_0,0.05879314053148332,33.333333333333336,stimulus_0,1.6104068756103516,2,0.7459328174591064,
0164,39,2,525.0,33.333333333333336,stimulus_0,0.05596867981541015,33.333333333333336,stimulus_1,2.083340883255005,1,1.1726431846618652,
0164,0,3,500.00000000000006,33.333333333333336,stimulus_0,0.4,33.333333333333336,stimulus_0,1.1097378730773926,3,0.5497519969940186,
0164,1,3,700.0,33.333333333333336,stimulus_1,0.2509879745459487,33.333333333333336,stimulus_1,1.0094780921936035,3,1.0243098735809326,
0164,2,3,708.3333333333334,33.333333333333336,stimulus_1,0.15302949805965513,33.333333333333336,stimulus_1,0.9759900569915771,3,0.5660889148712158,
0164,3,3,700.0,33.333333333333336,stimulus_0,0.07447047493079645,33.333333333333336,stimulus_0,1.0554640293121338,3,0.564594030380249,
0164,4,3,508.33333333333337,33.333333333333336,stimulus_1,0.01,33.333333333333336,stimulus_1,1.8957231044769287,1,0.8940730094909668,
0164,5,3,516.6666666666667,33.333333333333336,stimulus_0,0.01,33.333333333333336,stimulus_1,1.671462059020996,1,0.6587390899658203,
0164,6,3,516.6666666666667,33.333333333333336,stimulus_1,0.07052923220481583,33.333333333333336,stimulus_0,1.6385610103607178,2,0.9381940364837646,
0164,7,3,633.3333333333334,33.333333333333336,stimulus_0,0.128384430186895,33.333333333333336,stimulus_0,1.097865104675293,2,1.0376498699188232,
0164,8,3,525.0,33.333333333333336,stimulus_0,0.10953691526213832,33.333333333333336,stimulus_0,1.6449880599975586,2,0.7223639488220215,
0164,9,3,700.0,33.333333333333336,stimulus_1,0.09357179614908179,33.333333333333336,stimulus_1,1.0514600276947021,2,0.47351908683776855,
0164,10,3,583.3333333333334,33.333333333333336,stimulus_0,0.07935502290566626,33.333333333333336,stimulus_0,1.293313980102539,2,1.031752109527588,
0164,11,3,725.0,33.333333333333336,stimulus_1,0.06708194755481839,33.333333333333336,stimulus_0,1.6873250007629395,2,1.3050360679626465,
0164,12,3,508.33333333333337,33.333333333333336,stimulus_1,0.09663487986219543,33.333333333333336,stimulus_1,2.095345973968506,1,0.47258615493774414,
0164,13,3,733.3333333333334,33.333333333333336,stimulus_0,0.08702494814966077,33.333333333333336,stimulus_0,1.5493700504302979,2,0.8910629749298096,
0164,14,3,541.6666666666667,33.333333333333336,stimulus_1,0.07826474304933023,33.333333333333336,stimulus_1,2.804246187210083,1,0.5119848251342773,
0164,15,3,541.6666666666667,33.333333333333336,stimulus_0,0.07015610441992692,33.333333333333336,stimulus_0,1.6137549877166748,2,0.9967248439788818,
0164,16,3,525.0,33.333333333333336,stimulus_1,0.06255862658346861,33.333333333333336,stimulus_1,1.5720210075378418,1,0.6361138820648193,
0164,17,3,541.6666666666667,33.333333333333336,stimulus_1,0.055327947828857804,33.333333333333336,stimulus_0,2.062274932861328,2,0.6823668479919434,
0164,18,3,516.6666666666667,33.333333333333336,stimulus_0,0.07380160318142437,33.333333333333336,stimulus_1,2.520263195037842,2,0.6984689235687256,
0164,19,3,741.6666666666667,33.333333333333336,stimulus_0,0.08991817037677313,33.333333333333336,stimulus_0,1.4350850582122803,2,0.8056340217590332,
0164,20,3,583.3333333333334,33.333333333333336,stimulus_0,0.08413180332396764,33.333333333333336,stimulus_0,2.4370901584625244,1,0.9965939521789551,
0164,21,3,683.3333333333334,33.333333333333336,stimulus_1,0.07849858935792237,33.333333333333336,stimulus_0,1.5790419578552246,1,1.2930629253387451,
0164,22,3,750.0,33.333333333333336,stimulus_1,0.09269244776136082,33.333333333333336,stimulus_1,1.5100409984588623,2,0.862678050994873,
0164,23,3,741.6666666666667,33.333333333333336,stimulus_0,0.08764200498288827,33.333333333333336,stimulus_0,1.8734149932861328,1,0.8396110534667969,
0164,24,3,683.3333333333334,33.333333333333336,stimulus_0,0.0830559760946255,33.333333333333336,stimulus_0,3.4796509742736816,2,0.7433099746704102,
0164,25,3,641.6666666666667,33.333333333333336,stimulus_1,0.07848386355945136,33.333333333333336,stimulus_1,1.0096900463104248,3,0.6075198650360107,
0164,26,3,525.0,33.333333333333336,stimulus_0,0.0743003890594029,33.333333333333336,stimulus_0,1.7412497997283936,2,0.7359318733215332,
0164,27,3,575.0,33.333333333333336,stimulus_1,0.07010106289994883,33.333333333333336,stimulus_0,1.826366901397705,1,0.6153368949890137,
0164,28,3,625.0,33.333333333333336,stimulus_1,0.08076239560109894,33.333333333333336,stimulus_0,2.2667551040649414,2,0.9959721565246582,
0164,29,3,608.3333333333334,33.333333333333336,stimulus_0,0.09100027800618576,33.333333333333336,stimulus_0,2.6326329708099365,1,0.9904730319976807,
0164,30,3,575.0,33.333333333333336,stimulus_1,0.0873089786330623,33.333333333333336,stimulus_1,1.7887699604034424,1,0.6794281005859375,
0164,31,3,725.0,33.333333333333336,stimulus_0,0.08389487086562497,33.333333333333336,stimulus_0,1.1161911487579346,2,0.8069889545440674,
0164,32,3,600.0,33.333333333333336,stimulus_1,0.08042087147858656,33.333333333333336,stimulus_1,1.3126909732818604,2,0.65140700340271,
0164,33,3,750.0,33.333333333333336,stimulus_1,0.07714902557873748,33.333333333333336,stimulus_0,2.5012240409851074,1,0.7879929542541504,
0164,34,3,608.3333333333334,33.333333333333336,stimulus_0,0.08595913652844872,33.333333333333336,stimulus_1,1.8390519618988037,2,0.6236550807952881,
0164,35,3,725.0,33.333333333333336,stimulus_0,0.09462442713562769,33.333333333333336,stimulus_0,1.446181058883667,2,1.3484630584716797,
0164,36,3,533.3333333333334,33.333333333333336,stimulus_1,0.09155442502068922,33.333333333333336,stimulus_1,1.2991318702697754,2,0.5344009399414062,
0164,37,3,508.33333333333337,33.333333333333336,stimulus_0,0.08860006420354571,33.333333333333336,stimulus_0,0.9313311576843262,2,0.777292013168335,
0164,38,3,708.3333333333334,33.333333333333336,stimulus_1,0.08585095584634922,33.333333333333336,stimulus_1,1.6086010932922363,2,0.6462979316711426,
0164,39,3,591.6666666666667,33.333333333333336,stimulus_0,0.08324143262373646,33.333333333333336,stimulus_0,1.6417500972747803,2,1.1830370426177979,
0164,0,4,625.0,33.333333333333336,stimulus_1,0.4,33.333333333333336,stimulus_1,0.8182888031005859,3,0.9872479438781738,
0164,1,4,725.0,33.333333333333336,stimulus_0,0.2509879745459487,33.333333333333336,stimulus_0,1.061892032623291,4,0.5933609008789062,
0164,2,4,750.0,33.333333333333336,stimulus_0,0.15302949805965513,33.333333333333336,stimulus_0,1.140368938446045,3,0.6191098690032959,
0164,3,4,558.3333333333334,33.333333333333336,stimulus_1,0.07447047493079645,33.333333333333336,stimulus_0,1.3829078674316406,2,0.9929759502410889,
0164,4,4,658.3333333333334,33.333333333333336,stimulus_0,0.19116438799299137,33.333333333333336,stimulus_1,1.7030408382415771,2,0.7200229167938232,
0164,5,4,541.6666666666667,33.333333333333336,stimulus_1,0.26628601124553775,33.333333333333336,stimulus_1,1.1275269985198975,2,0.6088240146636963,
0164,6,4,633.3333333333334,33.333333333333336,stimulus_0,0.24195964796351932,33.333333333333336,stimulus_0,1.1735248565673828,3,0.4849979877471924,
0164,7,4,625.0,33.333333333333336,stimulus_1,0.22176047137269736,33.333333333333336,stimulus_1,1.3432588577270508,3,0.53944993019104,
0164,8,4,683.3333333333334,33.333333333333336,stimulus_0,0.2047776179182729,33.333333333333336,stimulus_0,1.2836971282958984,3,0.5605080127716064,
0164,9,4,633.3333333333334,33.333333333333336,stimulus_1,0.18973153913907215,33.333333333333336,stimulus_1,1.0954949855804443,4,0.6319758892059326,
0164,10,4,508.33333333333337,33.333333333333336,stimulus_1,0.17675537773936253,33.333333333333336,stimulus_1,1.8584370613098145,2,0.7760789394378662,
0164,11,4,750.0,33.333333333333336,stimulus_0,0.16521142529310737,33.333333333333336,stimulus_0,1.549293041229248,3,0.5559370517730713,
0164,12,4,683.3333333333334,33.333333333333336,stimulus_0,0.15468696481517696,33.333333333333336,stimulus_0,1.2961640357971191,3,0.6267549991607666,
0164,13,4,516.6666666666667,33.333333333333336,stimulus_0,0.14423215824328278,33.333333333333336,stimulus_0,1.3590219020843506,2,0.7524571418762207,
0164,14,4,525.0,33.333333333333336,stimulus_1,0.13435481988456738,33.333333333333336,stimulus_1,1.2002019882202148,2,0.7134928703308105,
0164,15,4,583.3333333333334,33.333333333333336,stimulus_1,0.12487470399565176,33.333333333333336,stimulus_1,1.0074410438537598,2,0.5872828960418701,
0164,16,4,641.6666666666667,33.333333333333336,stimulus_1,0.11564170378019639,33.333333333333336,stimulus_1,2.2599129676818848,2,0.6405019760131836,
0164,17,4,658.3333333333334,33.333333333333336,stimulus_0,0.10713518566690278,33.333333333333336,stimulus_0,1.0214459896087646,2,0.6361780166625977,
0164,18,4,750.0,33.333333333333336,stimulus_0,0.09863716892509744,33.333333333333336,stimulus_0,1.418463945388794,2,1.3508260250091553,
0164,19,4,508.33333333333337,33.333333333333336,stimulus_1,0.09003898139582794,33.333333333333336,stimulus_1,1.8580210208892822,1,0.42981791496276855,
0164,20,4,533.3333333333334,33.333333333333336,stimulus_0,0.08116494067969388,33.333333333333336,stimulus_0,1.554264783859253,2,0.8434889316558838,
0164,21,4,600.0,33.333333333333336,stimulus_1,0.07191197915931147,33.333333333333336,stimulus_1,1.4789628982543945,2,0.5704989433288574,
0164,22,4,525.0,33.333333333333336,stimulus_1,0.062127639224350384,33.333333333333336,stimulus_0,2.68534517288208,1,0.8468539714813232,
0164,23,4,533.3333333333334,33.333333333333336,stimulus_0,0.08635416262361456,33.333333333333336,stimulus_1,1.1798388957977295,2,0.6459369659423828,
0164,24,4,750.0,33.333333333333336,stimulus_1,0.10347848477661925,33.333333333333336,stimulus_1,1.9630181789398193,2,0.5546691417694092,
0164,25,4,750.0,33.333333333333336,stimulus_0,0.09808271028684606,33.333333333333336,stimulus_0,1.7912981510162354,1,0.691950798034668,
0164,26,4,741.6666666666667,33.333333333333336,stimulus_0,0.09304089225443901,33.333333333333336,stimulus_0,2.9773340225219727,1,0.7870888710021973,
0164,27,4,516.6666666666667,33.333333333333336,stimulus_1,0.08790330367420601,33.333333333333336,stimulus_1,1.4938840866088867,2,0.5642180442810059,
0164,28,4,675.0,33.333333333333336,stimulus_0,0.08306821506706308,33.333333333333336,stimulus_1,1.833669900894165,1,0.5612990856170654,
0164,29,4,641.6666666666667,33.333333333333336,stimulus_1,0.09568439029690962,33.333333333333336,stimulus_0,1.9519569873809814,2,0.7349419593811035,
0164,30,4,608.3333333333334,33.333333333333336,stimulus_0,0.10749066304870536,33.333333333333336,stimulus_0,2.0660459995269775,2,0.6826319694519043,
0164,31,4,683.3333333333334,33.333333333333336,stimulus_1,0.10369433084403828,33.333333333333336,stimulus_1,1.3990681171417236,1,0.7364330291748047,
0164,32,4,550.0,33.333333333333336,stimulus_0,0.09981086126733513,33.333333333333336,stimulus_0,1.5148069858551025,1,1.4215168952941895,
0164,33,4,700.0,33.333333333333336,stimulus_1,0.09612955233717518,33.333333333333336,stimulus_1,1.789443016052246,2,0.7250571250915527,
0164,34,4,600.0,33.333333333333336,stimulus_0,0.09265575178921376,33.333333333333336,stimulus_0,1.2859079837799072,2,1.4005589485168457,
0164,35,4,741.6666666666667,33.333333333333336,stimulus_1,0.08905685282749959,33.333333333333336,stimulus_1,1.9624569416046143,1,0.4830811023712158,
0164,36,4,600.0,33.333333333333336,stimulus_1,0.08564555249111222,33.333333333333336,stimulus_0,1.7655539512634277,1,1.1302211284637451,
0164,37,4,691.6666666666667,33.333333333333336,stimulus_0,0.09508208444533905,33.333333333333336,stimulus_0,1.1552248001098633,2,0.6692140102386475,
0164,38,4,575.0,33.333333333333336,stimulus_0,0.09207548451396019,33.333333333333336,stimulus_0,2.0839529037475586,2,0.8346009254455566,
0164,39,4,691.6666666666667,33.333333333333336,stimulus_1,0.08893837421884815,33.333333333333336,stimulus_1,1.8549489974975586,2,0.6282000541687012,
0164,0,5,716.6666666666667,33.333333333333336,stimulus_1,0.4,33.333333333333336,stimulus_1,1.0426630973815918,3,0.8066849708557129,
0164,1,5,616.6666666666667,33.333333333333336,stimulus_0,0.2509879745459487,33.333333333333336,stimulus_0,0.9776570796966553,4,0.6838510036468506,
0164,2,5,591.6666666666667,33.333333333333336,stimulus_0,0.15302949805965513,33.333333333333336,stimulus_0,1.2725989818572998,3,0.5649509429931641,
0164,3,5,641.6666666666667,33.333333333333336,stimulus_1,0.07447047493079645,33.333333333333336,stimulus_1,1.0647590160369873,4,0.7354738712310791,
0164,4,5,641.6666666666667,33.333333333333336,stimulus_0,0.01,33.333333333333336,stimulus_0,1.9481940269470215,1,1.0115258693695068,
0164,5,5,500.00000000000006,33.333333333333336,stimulus_1,0.01,33.333333333333336,stimulus_1,1.4189419746398926,2,0.5882551670074463,
0164,6,5,741.6666666666667,33.333333333333336,stimulus_1,0.01,33.333333333333336,stimulus_0,1.6570210456848145,1,0.7660560607910156,
0164,7,5,541.6666666666667,33.333333333333336,stimulus_0,0.038220555504322185,33.333333333333336,stimulus_1,1.9717109203338623,1,0.8780958652496338,
0164,8,5,600.0,33.333333333333336,stimulus_0,0.08909752170843621,33.333333333333336,stimulus_1,1.6046898365020752,2,0.6938090324401855,
0164,9,5,708.3333333333334,33.333333333333336,stimulus_1,0.13141542603634887,33.333333333333336,stimulus_1,1.7804958820343018,2,0.7134919166564941,
0164,10,5,508.33333333333337,33.333333333333336,stimulus_0,0.11670311090788277,33.333333333333336,stimulus_0,1.6345481872558594,1,0.657243013381958,
0164,11,5,625.0,33.333333333333336,stimulus_1,0.104389253240385,33.333333333333336,stimulus_1,1.2689738273620605,2,0.6573371887207031,
0164,12,5,666.6666666666667,33.333333333333336,stimulus_1,0.09300117097951999,33.333333333333336,stimulus_1,1.5533740520477295,2,0.75347900390625,
0164,13,5,658.3333333333334,33.333333333333336,stimulus_0,0.082873297622303,33.333333333333336,stimulus_0,2.585175037384033,1,0.7529630661010742,
0164,14,5,716.6666666666667,33.333333333333336,stimulus_1,0.07367164186971953,33.333333333333336,stimulus_1,1.9809398651123047,1,1.000805139541626,
0164,15,5,541.6666666666667,33.333333333333336,stimulus_0,0.0651640923262008,33.333333333333336,stimulus_0,1.1457221508026123,2,0.7508418560028076,
0164,16,5,683.3333333333334,33.333333333333336,stimulus_0,0.057680612569683376,33.333333333333336,stimulus_0,1.1619880199432373,2,0.6829619407653809,
0164,17,5,708.3333333333334,33.333333333333336,stimulus_1,0.05058107580535065,33.333333333333336,stimulus_1,1.2074990272521973,2,0.6246800422668457,
0164,18,5,658.3333333333334,33.333333333333336,stimulus_1,0.043764325303777885,33.333333333333336,stimulus_0,1.4817790985107422,1,0.6416001319885254,
0164,19,5,633.3333333333334,33.333333333333336,stimulus_0,0.060540361159130696,33.333333333333336,stimulus_0,1.6616950035095215,1,0.9712469577789307,
0164,20,5,641.6666666666667,33.333333333333336,stimulus_0,0.054644574556184156,33.333333333333336,stimulus_1,2.281363010406494,1,0.9012811183929443,
0164,21,5,600.0,33.333333333333336,stimulus_1,0.06918143590578585,33.333333333333336,stimulus_1,2.0630509853363037,2,0.5884020328521729,
0164,22,5,541.6666666666667,33.333333333333336,stimulus_0,0.06399204887637228,33.333333333333336,stimulus_0,1.307063102722168,2,1.205604076385498,
0164,23,5,616.6666666666667,33.333333333333336,stimulus_1,0.058868174904117776,33.333333333333336,stimulus_1,1.881437063217163,1,0.7973711490631104,
0164,24,5,733.3333333333334,33.333333333333336,stimulus_1,0.05419058774831653,33.333333333333336,stimulus_0,2.1766011714935303,1,0.9112029075622559,
0164,25,5,525.0,33.333333333333336,stimulus_0,0.06611427734428305,33.333333333333336,stimulus_0,1.4651379585266113,2,1.3948910236358643,
0164,26,5,691.6666666666667,33.333333333333336,stimulus_1,0.06192427784921278,33.333333333333336,stimulus_1,1.3420650959014893,1,0.6945619583129883,
0164,27,5,683.3333333333334,33.333333333333336,stimulus_0,0.05771661074401352,33.333333333333336,stimulus_0,1.098193883895874,3,0.9404540061950684,
0164,28,5,550.0,33.333333333333336,stimulus_0,0.05384106797745125,33.333333333333336,stimulus_0,1.387714147567749,2,0.7195019721984863,
0164,29,5,500.00000000000006,33.333333333333336,stimulus_1,0.049914047027608155,33.333333333333336,stimulus_0,1.4413318634033203,2,0.7348830699920654,
0164,30,5,608.3333333333334,33.333333333333336,stimulus_0,0.05994677512265667,33.333333333333336,stimulus_0,1.9519248008728027,2,0.8170239925384521,
0164,31,5,750.0,33.333333333333336,stimulus_1,0.056424420942557785,33.333333333333336,stimulus_1,1.738847017288208,1,0.6724300384521484,
0164,32,5,550.0,33.333333333333336,stimulus_0,0.05312702132748309,33.333333333333336,stimulus_0,1.2674989700317383,1,1.0182149410247803,
0164,33,5,541.6666666666667,33.333333333333336,stimulus_0,0.04974137974690396,33.333333333333336,stimulus_1,2.0063400268554688,1,0.7715158462524414,
0164,34,5,700.0,33.333333333333336,stimulus_1,0.05847141519985094,33.333333333333336,stimulus_0,2.8339860439300537,1,0.9454131126403809,
0164,35,5,625.0,33.333333333333336,stimulus_1,0.06701754290831807,33.333333333333336,stimulus_1,1.2863929271697998,2,0.5971720218658447,
0164,36,5,716.6666666666667,33.333333333333336,stimulus_0,0.06411320541567522,33.333333333333336,stimulus_0,1.3394510746002197,2,0.8193600177764893,
0164,37,5,533.3333333333334,33.333333333333336,stimulus_0,0.06113738910621164,33.333333333333336,stimulus_0,1.3145809173583984,2,0.8770310878753662,
0164,38,5,600.0,33.333333333333336,stimulus_1,0.05827353969266352,33.333333333333336,stimulus_1,1.742542028427124,1,0.7039649486541748,
0164,39,5,533.3333333333334,33.333333333333336,stimulus_1,0.05559942091022202,33.333333333333336,stimulus_1,1.521270990371704,1,0.7188489437103271,
0164,0,6,616.6666666666667,33.333333333333336,stimulus_0,0.4,33.333333333333336,stimulus_0,1.0897090435028076,4,0.6092071533203125,
0164,1,6,658.3333333333334,33.333333333333336,stimulus_1,0.2509879745459487,33.333333333333336,stimulus_1,1.2372329235076904,4,0.706035852432251,
0164,2,6,691.6666666666667,33.333333333333336,stimulus_0,0.15302949805965513,33.333333333333336,stimulus_0,0.8490581512451172,4,0.5675191879272461,
0164,3,6,591.6666666666667,33.333333333333336,stimulus_1,0.07447047493079645,33.333333333333336,stimulus_1,0.9649851322174072,3,0.7017669677734375,
0164,4,6,675.0,33.333333333333336,stimulus_0,0.01,33.333333333333336,stimulus_0,1.0645530223846436,2,0.831265926361084,
0164,5,6,716.6666666666667,33.333333333333336,stimulus_0,0.01,33.333333333333336,stimulus_1,1.5642921924591064,1,0.5999579429626465,
0164,6,6,625.0,33.333333333333336,stimulus_1,0.07052923220481583,33.333333333333336,stimulus_1,1.174785852432251,2,0.6148808002471924,
0164,7,6,533.3333333333334,33.333333333333336,stimulus_1,0.04657433209187717,33.333333333333336,stimulus_0,1.3729329109191895,2,0.6523571014404297,
0164,8,6,633.3333333333334,33.333333333333336,stimulus_0,0.0973886332928855,33.333333333333336,stimulus_0,0.9967849254608154,2,0.795219898223877,
0164,9,6,625.0,33.333333333333336,stimulus_0,0.08148233627619228,33.333333333333336,stimulus_0,1.1572949886322021,3,0.5133640766143799,
0164,10,6,575.0,33.333333333333336,stimulus_1,0.06739350264530619,33.333333333333336,stimulus_1,0.9508159160614014,2,0.4879920482635498,
0164,11,6,675.0,33.333333333333336,stimulus_1,0.055271501774670384,33.333333333333336,stimulus_1,1.626373052597046,2,0.7484111785888672,
0164,12,6,600.0,33.333333333333336,stimulus_0,0.04451509075853055,33.333333333333336,stimulus_1,1.6354830265045166,2,1.719146966934204,
0164,13,6,750.0,33.333333333333336,stimulus_1,0.07026409163521607,33.333333333333336,stimulus_1,1.0889558792114258,2,1.1217801570892334,
0164,14,6,650.0,33.333333333333336,stimulus_1,0.061253613515728444,33.333333333333336,stimulus_1,0.8924310207366943,2,0.8859829902648926,
0164,15,6,566.6666666666667,33.333333333333336,stimulus_0,0.05294023905959366,33.333333333333336,stimulus_0,1.6912131309509277,1,0.6259691715240479,
0164,16,6,725.0,33.333333333333336,stimulus_1,0.04515588919157659,33.333333333333336,stimulus_1,1.2312231063842773,2,1.0303339958190918,
0164,17,6,733.3333333333334,33.333333333333336,stimulus_1,0.03824413857691261,33.333333333333336,stimulus_1,1.4136979579925537,1,0.5325260162353516,
0164,18,6,716.6666666666667,33.333333333333336,stimulus_0,0.031651655235076626,33.333333333333336,stimulus_1,1.73744797706604,1,0.6687772274017334,
0164,19,6,516.6666666666667,33.333333333333336,stimulus_0,0.04836734228302869,33.333333333333336,stimulus_0,1.4461779594421387,2,0.8524999618530273,
0164,20,6,608.3333333333334,33.333333333333336,stimulus_1,0.04261766418961943,33.333333333333336,stimulus_1,2.2666430473327637,1,1.2981319427490234,
0164,21,6,733.3333333333334,33.333333333333336,stimulus_0,0.03699089907826869,33.333333333333336,stimulus_1,1.808161973953247,1,1.5794901847839355,
0164,22,6,600.0,33.333333333333336,stimulus_1,0.05147296626647041,33.333333333333336,stimulus_1,1.1748900413513184,2,0.6270489692687988,
0164,23,6,741.6666666666667,33.333333333333336,stimulus_0,0.046472503503104945,33.333333333333336,stimulus_0,0.9770100116729736,2,0.7721469402313232,
0164,24,6,633.3333333333334,33.333333333333336,stimulus_0,0.04189635824835514,33.333333333333336,stimulus_0,1.295854091644287,2,0.7454559803009033,
0164,25,6,558.3333333333334,33.333333333333336,stimulus_1,0.037331856670564045,33.333333333333336,stimulus_1,1.4359569549560547,2,0.7719430923461914,
0164,26,6,558.3333333333334,33.333333333333336,stimulus_0,0.03313747534605915,33.333333333333336,stimulus_0,1.806873083114624,1,0.6083450317382812,
0164,27,6,650.0,33.333333333333336,stimulus_1,0.028902095424040042,33.333333333333336,stimulus_0,1.2266440391540527,1,0.5976219177246094,
0164,28,6,558.3333333333334,33.333333333333336,stimulus_0,0.0397956577591283,33.333333333333336,stimulus_1,1.3514862060546875,1,0.7485830783843994,
0164,29,6,666.6666666666667,33.333333333333336,stimulus_1,0.05015843218125898,33.333333333333336,stimulus_1,1.6100001335144043,1,0.6295161247253418,
0164,30,6,533.3333333333334,33.333333333333336,stimulus_1,0.046505978325095954,33.333333333333336,stimulus_1,2.5878570079803467,1,0.6226480007171631,
0164,31,6,500.00000000000006,33.333333333333336,stimulus_0,0.0431000388543028,33.333333333333336,stimulus_0,0.9456918239593506,2,0.7869391441345215,
0164,32,6,525.0,33.333333333333336,stimulus_0,0.03961417924619948,33.333333333333336,stimulus_1,1.6041369438171387,2,0.9836850166320801,
0164,33,6,658.3333333333334,33.333333333333336,stimulus_0,0.04859450506970481,33.333333333333336,stimulus_1,2.503319025039673,1,0.886476993560791,
0164,34,6,550.0,33.333333333333336,stimulus_1,0.05738601969390378,33.333333333333336,stimulus_1,1.27276611328125,2,0.8393039703369141,
0164,35,6,650.0,33.333333333333336,stimulus_1,0.054380599396670504,33.333333333333336,stimulus_0,1.8632760047912598,2,1.2711210250854492,
0164,36,6,641.6666666666667,33.333333333333336,stimulus_0,0.06233181789550446,33.333333333333336,stimulus_0,1.7612929344177246,2,0.9732069969177246,
0164,37,6,750.0,33.333333333333336,stimulus_0,0.059328593900834226,33.333333333333336,stimulus_1,1.2828218936920166,2,0.7799451351165771,
0164,38,6,566.6666666666667,33.333333333333336,stimulus_1,0.06714091421201474,33.333333333333336,stimulus_1,1.3807179927825928,1,0.6100420951843262,
0164,39,6,658.3333333333334,33.333333333333336,stimulus_1,0.06445407063118042,33.333333333333336,stimulus_0,1.7713570594787598,1,1.0174469947814941,
0164,0,7,525.0,33.333333333333336,stimulus_1,0.4,33.333333333333336,stimulus_0,2.215101957321167,2,0.8104050159454346,
0164,1,7,675.0,33.333333333333336,stimulus_0,0.6431098143584852,33.333333333333336,stimulus_0,0.939755916595459,4,0.5045971870422363,
0164,2,7,700.0,33.333333333333336,stimulus_0,0.5620020274253117,33.333333333333336,stimulus_0,0.9493951797485352,4,0.7918438911437988,
0164,3,7,525.0,33.333333333333336,stimulus_1,0.5133116582634316,33.333333333333336,stimulus_1,1.5313210487365723,3,0.6759359836578369,
0164,4,7,525.0,33.333333333333336,stimulus_0,0.47731000462160866,33.333333333333336,stimulus_0,1.017164945602417,4,0.5791218280792236,
0164,5,7,666.6666666666667,33.333333333333336,stimulus_1,0.4492323609778033,33.333333333333336,stimulus_1,1.066187858581543,4,0.8159868717193604,
0164,6,7,533.3333333333334,33.333333333333336,stimulus_1,0.42493891836841796,33.333333333333336,stimulus_1,1.0120949745178223,4,0.6068339347839355,
0164,7,7,625.0,33.333333333333336,stimulus_0,0.40244342561762325,33.333333333333336,stimulus_0,0.7126259803771973,4,0.8594779968261719,
0164,8,7,675.0,33.333333333333336,stimulus_0,0.3818376435872739,33.333333333333336,stimulus_0,0.66280198097229,4,0.6317269802093506,
0164,9,7,675.0,33.333333333333336,stimulus_1,0.36197507359786474,33.333333333333336,stimulus_1,0.8564119338989258,4,0.7426159381866455,
0164,10,7,691.6666666666667,33.333333333333336,stimulus_0,0.3418060980871992,33.333333333333336,stimulus_0,0.7480239868164062,4,0.635502815246582,
0164,11,7,525.0,33.333333333333336,stimulus_1,0.3200752597336642,33.333333333333336,stimulus_1,0.9639310836791992,4,0.687777042388916,
0164,12,7,575.0,33.333333333333336,stimulus_1,0.29447109728475834,33.333333333333336,stimulus_1,1.0091748237609863,3,1.0219571590423584,
0164,13,7,575.0,33.333333333333336,stimulus_0,0.2572913155279589,33.333333333333336,stimulus_0,0.7319679260253906,4,0.6111760139465332,
0164,14,7,700.0,33.333333333333336,stimulus_1,0.1963326137101838,33.333333333333336,stimulus_1,0.8666079044342041,4,0.6200320720672607,
0164,15,7,550.0,33.333333333333336,stimulus_0,0.1203446614397004,33.333333333333336,stimulus_1,2.711106061935425,3,0.7061741352081299,
0164,16,7,650.0,33.333333333333336,stimulus_0,0.25376135012001305,33.333333333333336,stimulus_0,0.704272985458374,4,0.45114588737487793,
0164,17,7,658.3333333333334,33.333333333333336,stimulus_0,0.225869200445427,33.333333333333336,stimulus_0,0.851294994354248,4,0.5228149890899658,
0164,18,7,683.3333333333334,33.333333333333336,stimulus_1,0.19747879350134542,33.333333333333336,stimulus_1,0.8503549098968506,4,0.5797278881072998,
0164,19,7,750.0,33.333333333333336,stimulus_1,0.1712066907279581,33.333333333333336,stimulus_1,1.541172981262207,3,0.9006791114807129,
0164,20,7,508.33333333333337,33.333333333333336,stimulus_0,0.14834562476837942,33.333333333333336,stimulus_0,1.0462501049041748,3,0.6845650672912598,
0164,21,7,658.3333333333334,33.333333333333336,stimulus_1,0.1292089234436633,33.333333333333336,stimulus_1,1.149954080581665,4,0.6568589210510254,
0164,22,7,650.0,33.333333333333336,stimulus_0,0.11231358216874071,33.333333333333336,stimulus_0,0.944342851638794,4,0.574927806854248,
0164,23,7,550.0,33.333333333333336,stimulus_1,0.09655195727167587,33.333333333333336,stimulus_1,1.741231918334961,2,0.8111200332641602,
0164,24,7,608.3333333333334,33.333333333333336,stimulus_1,0.08218934607484407,33.333333333333336,stimulus_0,1.6429409980773926,2,0.7886011600494385,
0164,25,7,700.0,33.333333333333336,stimulus_0,0.11651829774176647,33.333333333333336,stimulus_0,1.5532681941986084,2,1.2289748191833496,
0164,26,7,691.6666666666667,33.333333333333336,stimulus_1,0.10682048489669432,33.333333333333336,stimulus_1,1.4186220169067383,2,0.7309548854827881,
0164,27,7,608.3333333333334,33.333333333333336,stimulus_0,0.0978384719036855,33.333333333333336,stimulus_0,1.1443860530853271,2,1.0931079387664795,
0164,28,7,591.6666666666667,33.333333333333336,stimulus_1,0.0893632768947602,33.333333333333336,stimulus_1,2.1982481479644775,2,0.6433360576629639,
0164,29,7,550.0,33.333333333333336,stimulus_0,0.08124422223768846,33.333333333333336,stimulus_0,1.1103758811950684,2,0.738008975982666,
0164,30,7,633.3333333333334,33.333333333333336,stimulus_1,0.0733488971834223,33.333333333333336,stimulus_0,2.295590877532959,2,0.8914189338684082,
0164,31,7,566.6666666666667,33.333333333333336,stimulus_0,0.09272524500481988,33.333333333333336,stimulus_0,1.6757159233093262,2,1.2099308967590332,
0164,32,7,641.6666666666667,33.333333333333336,stimulus_0,0.08623144263704124,33.333333333333336,stimulus_0,1.5440869331359863,2,0.8645479679107666,
0164,33,7,700.0,33.333333333333336,stimulus_1,0.08031161727537506,33.333333333333336,stimulus_1,1.0410680770874023,2,0.714134931564331,
0164,34,7,691.6666666666667,33.333333333333336,stimulus_1,0.07447761765331967,33.333333333333336,stimulus_0,1.6195151805877686,2,0.6542978286743164,
0164,35,7,691.6666666666667,33.333333333333336,stimulus_0,0.0889989383156346,33.333333333333336,stimulus_0,1.3510479927062988,2,1.5584750175476074,
0164,36,7,616.6666666666667,33.333333333333336,stimulus_1,0.083975738491474,33.333333333333336,stimulus_1,1.395460844039917,2,0.632498025894165,
0164,37,7,725.0,33.333333333333336,stimulus_0,0.07895872645750257,33.333333333333336,stimulus_0,1.1667158603668213,2,0.8120710849761963,
0164,38,7,533.3333333333334,33.333333333333336,stimulus_1,0.07431635947356996,33.333333333333336,stimulus_1,1.657193899154663,2,0.5851988792419434,
0164,39,7,675.0,33.333333333333336,stimulus_0,0.06964888544082798,33.333333333333336,stimulus_0,1.2165660858154297,1,0.654000997543335,
0164,0,8,683.3333333333334,33.333333333333336,stimulus_1,0.4,33.333333333333336,stimulus_1,1.9469521045684814,2,1.4860692024230957,
0164,1,8,566.6666666666667,33.333333333333336,stimulus_0,0.2509879745459487,33.333333333333336,stimulus_0,1.7524590492248535,2,0.9384219646453857,
0164,2,8,525.0,33.333333333333336,stimulus_1,0.15302949805965513,33.333333333333336,stimulus_1,1.9167840480804443,2,0.7940878868103027,
0164,3,8,533.3333333333334,33.333333333333336,stimulus_0,0.07447047493079645,33.333333333333336,stimulus_0,1.295788049697876,2,0.8680999279022217,
0164,4,8,691.6666666666667,33.333333333333336,stimulus_0,0.01,33.333333333333336,stimulus_0,1.7463788986206055,2,1.2031810283660889,
0164,5,8,508.33333333333337,33.333333333333336,stimulus_1,0.01,33.333333333333336,stimulus_0,1.7862091064453125,2,0.9028658866882324,
0164,6,8,633.3333333333334,33.333333333333336,stimulus_1,0.07052923220481583,33.333333333333336,stimulus_1,1.3286840915679932,1,0.7122089862823486,
0164,7,8,525.0,33.333333333333336,stimulus_0,0.04657433209187717,33.333333333333336,stimulus_0,1.1461091041564941,1,0.7900650501251221,
0164,8,8,708.3333333333334,33.333333333333336,stimulus_0,0.02673196139095757,33.333333333333336,stimulus_1,1.1671240329742432,1,1.493577003479004,
0164,9,8,683.3333333333334,33.333333333333336,stimulus_0,0.07164077160331156,33.333333333333336,stimulus_0,1.5241360664367676,2,1.2454469203948975,
0164,10,8,525.0,33.333333333333336,stimulus_1,0.05739514180059857,33.333333333333336,stimulus_1,1.4308760166168213,2,0.8033931255340576,
0164,11,8,691.6666666666667,33.333333333333336,stimulus_1,0.045188024443374164,33.333333333333336,stimulus_1,1.1914570331573486,1,0.7647199630737305,
0164,12,8,541.6666666666667,33.333333333333336,stimulus_0,0.03439185683395496,33.333333333333336,stimulus_0,1.2315049171447754,1,1.1845369338989258,
0164,13,8,708.3333333333334,33.333333333333336,stimulus_1,0.023970080562048635,33.333333333333336,stimulus_1,1.372162103652954,1,0.7299599647521973,
0164,14,8,650.0,33.333333333333336,stimulus_1,0.014380113975873132,33.333333333333336,stimulus_1,1.3869800567626953,1,0.6675560474395752,
0164,15,8,516.6666666666667,33.333333333333336,stimulus_0,0.01,33.333333333333336,stimulus_0,1.5237879753112793,1,0.7661640644073486,
0164,16,8,558.3333333333334,33.333333333333336,stimulus_1,0.01,33.333333333333336,stimulus_0,2.33292293548584,1,1.2805261611938477,
0164,17,8,650.0,33.333333333333336,stimulus_0,0.019690845758416953,33.333333333333336,stimulus_1,1.259047031402588,2,0.6877379417419434,
0164,18,8,600.0,33.333333333333336,stimulus_1,0.03778145509088571,33.333333333333336,stimulus_1,2.0982558727264404,2,0.7742979526519775,
0164,19,8,541.6666666666667,33.333333333333336,stimulus_0,0.031638553975021855,33.333333333333336,stimulus_0,1.0965240001678467,2,1.2839150428771973,
0164,20,8,558.3333333333334,33.333333333333336,stimulus_1,0.02569981037686908,33.333333333333336,stimulus_1,1.1249711513519287,2,1.1723060607910156,
0164,21,8,591.6666666666667,33.333333333333336,stimulus_0,0.020304867765692347,33.333333333333336,stimulus_0,1.1176269054412842,1,1.146988868713379,
0164,22,8,700.0,33.333333333333336,stimulus_1,0.015044039364853212,33.333333333333336,stimulus_1,1.6797780990600586,1,0.720850944519043,
0164,23,8,650.0,33.333333333333336,stimulus_0,0.010189622020071953,33.333333333333336,stimulus_0,1.6439239978790283,1,0.8793611526489258,
0164,24,8,558.3333333333334,33.333333333333336,stimulus_0,0.01,33.333333333333336,stimulus_1,1.57167387008667,1,0.8588449954986572,
0164,25,8,550.0,33.333333333333336,stimulus_1,0.018232120721877187,33.333333333333336,stimulus_1,1.4834890365600586,1,0.8639171123504639,
0164,26,8,750.0,33.333333333333336,stimulus_0,0.01398604927157815,33.333333333333336,stimulus_0,1.4811890125274658,1,0.8945801258087158,
0164,27,8,600.0,33.333333333333336,stimulus_1,0.01,33.333333333333336,stimulus_0,1.4982941150665283,1,0.8868451118469238,
0164,28,8,575.0,33.333333333333336,stimulus_1,0.020606052901565586,33.333333333333336,stimulus_1,1.2880239486694336,2,0.7749819755554199,
0164,29,8,733.3333333333334,33.333333333333336,stimulus_0,0.016771719472946922,33.333333333333336,stimulus_1,1.4301071166992188,1,0.7405800819396973,
0164,30,8,600.0,33.333333333333336,stimulus_0,0.027025233128573745,33.333333333333336,stimulus_1,1.2686030864715576,2,0.8721499443054199,
0164,31,8,575.0,33.333333333333336,stimulus_1,0.036911620489477104,33.333333333333336,stimulus_0,1.563966989517212,1,0.8831140995025635,
0164,32,8,691.6666666666667,33.333333333333336,stimulus_0,0.046529630083536055,33.333333333333336,stimulus_1,1.7895839214324951,1,0.8622171878814697,
0164,33,8,558.3333333333334,33.333333333333336,stimulus_1,0.05594888181385799,33.333333333333336,stimulus_0,1.0880839824676514,2,1.1572129726409912,
0164,34,8,608.3333333333334,33.333333333333336,stimulus_0,0.06521993715612234,33.333333333333336,stimulus_1,1.033432960510254,1,0.7690930366516113,
0164,35,8,683.3333333333334,33.333333333333336,stimulus_1,0.07438007659157503,33.333333333333336,stimulus_1,1.2691960334777832,2,0.9335238933563232,
0164,36,8,533.3333333333334,33.333333333333336,stimulus_1,0.0711252361025228,33.333333333333336,stimulus_1,1.764314889907837,2,0.960986852645874,
0164,37,8,566.6666666666667,33.333333333333336,stimulus_0,0.06803236493580977,33.333333333333336,stimulus_0,1.5385079383850098,2,1.5725650787353516,
0164,38,8,733.3333333333334,33.333333333333336,stimulus_0,0.06516551761611872,33.333333333333336,stimulus_0,1.0798838138580322,3,0.715054988861084,
0164,39,8,708.3333333333334,33.333333333333336,stimulus_1,0.06244074396073118,33.333333333333336,stimulus_1,0.9400351047515869,2,0.6477611064910889,
0164,0,9,708.3333333333334,33.333333333333336,stimulus_0,0.4,33.333333333333336,stimulus_0,0.855381965637207,4,0.612419843673706,
0164,1,9,666.6666666666667,33.333333333333336,stimulus_0,0.2509879745459487,33.333333333333336,stimulus_0,0.9856579303741455,3,0.5334749221801758,
0164,2,9,750.0,33.333333333333336,stimulus_1,0.15302949805965513,33.333333333333336,stimulus_1,0.8459510803222656,3,0.6505389213562012,
0164,3,9,550.0,33.333333333333336,stimulus_1,0.07447047493079645,33.333333333333336,stimulus_0,0.9607329368591309,2,0.6631090641021729,
0164,4,9,600.0,33.333333333333336,stimulus_0,0.19116438799299137,33.333333333333336,stimulus_0,0.8362879753112793,3,0.6041860580444336,
0164,5,9,675.0,33.333333333333336,stimulus_1,0.15879956701154668,33.333333333333336,stimulus_1,0.814918041229248,3,0.6188039779663086,
0164,6,9,591.6666666666667,33.333333333333336,stimulus_1,0.1332385462073028,33.333333333333336,stimulus_1,1.010152816772461,3,0.6351838111877441,
0164,7,9,600.0,33.333333333333336,stimulus_0,0.11113684036651211,33.333333333333336,stimulus_1,1.3330650329589844,2,0.587421178817749,
0164,8,9,616.6666666666667,33.333333333333336,stimulus_1,0.157303043129482,33.333333333333336,stimulus_1,0.9058718681335449,2,0.6390461921691895,
0164,9,9,641.6666666666667,33.333333333333336,stimulus_0,0.14268433045005913,33.333333333333336,stimulus_1,2.28883695602417,2,0.6154739856719971,
0164,10,9,733.3333333333334,33.333333333333336,stimulus_0,0.17592983523409886,33.333333333333336,stimulus_0,2.155362844467163,3,0.572260856628418,
0164,11,9,525.0,33.333333333333336,stimulus_1,0.1646289944553559,33.333333333333336,stimulus_0,2.1043179035186768,2,0.7654600143432617,
0164,12,9,558.3333333333334,33.333333333333336,stimulus_1,0.19112820793185364,33.333333333333336,stimulus_1,0.7674741744995117,3,0.6689069271087646,
0164,13,9,725.0,33.333333333333336,stimulus_1,0.1814796949960279,33.333333333333336,stimulus_0,0.9318788051605225,2,0.6430418491363525,
0164,14,9,666.6666666666667,33.333333333333336,stimulus_0,0.20439808043551866,33.333333333333336,stimulus_0,0.749945878982544,3,0.5748679637908936,
0164,15,9,516.6666666666667,33.333333333333336,stimulus_0,0.1959756898344471,33.333333333333336,stimulus_0,1.363563060760498,3,0.6557068824768066,
0164,16,9,658.3333333333334,33.333333333333336,stimulus_1,0.18867856271115777,33.333333333333336,stimulus_1,0.9979729652404785,3,0.6634268760681152,
0164,17,9,675.0,33.333333333333336,stimulus_1,0.18187016423961255,33.333333333333336,stimulus_1,1.659844160079956,3,0.9635481834411621,
0164,18,9,675.0,33.333333333333336,stimulus_0,0.1753996720849187,33.333333333333336,stimulus_0,0.8687849044799805,3,0.6302139759063721,
0164,19,9,675.0,33.333333333333336,stimulus_0,0.16958670198376577,33.333333333333336,stimulus_0,0.9241170883178711,2,0.6314270496368408,
0164,20,9,683.3333333333334,33.333333333333336,stimulus_0,0.16401038593358128,33.333333333333336,stimulus_0,1.1965720653533936,2,0.7151060104370117,
0164,21,9,641.6666666666667,33.333333333333336,stimulus_0,0.1585491499185012,33.333333333333336,stimulus_0,1.1307249069213867,3,0.708935022354126,
0164,22,9,658.3333333333334,33.333333333333336,stimulus_1,0.15359218617538853,33.333333333333336,stimulus_1,0.8839621543884277,3,0.6740608215332031,
0164,23,9,625.0,33.333333333333336,stimulus_1,0.14866693065281472,33.333333333333336,stimulus_1,0.9818320274353027,3,0.705021858215332,
0164,24,9,708.3333333333334,33.333333333333336,stimulus_1,0.14415380200203232,33.333333333333336,stimulus_1,2.840963125228882,2,0.6336250305175781,
0164,25,9,600.0,33.333333333333336,stimulus_0,0.13963025168309823,33.333333333333336,stimulus_0,1.777029037475586,2,0.8400630950927734,
0164,26,9,541.6666666666667,33.333333333333336,stimulus_0,0.13543413583754532,33.333333333333336,stimulus_1,1.1639549732208252,2,0.8165898323059082,
0164,27,9,533.3333333333334,33.333333333333336,stimulus_1,0.146836740726145,33.333333333333336,stimulus_1,1.3355488777160645,2,0.8419711589813232,
0164,28,9,683.3333333333334,33.333333333333336,stimulus_0,0.14309493395787937,33.333333333333336,stimulus_0,1.5531351566314697,1,0.6956770420074463,
0164,29,9,675.0,33.333333333333336,stimulus_1,0.13928197755881383,33.333333333333336,stimulus_1,1.1485390663146973,1,0.6170401573181152,
0164,30,9,600.0,33.333333333333336,stimulus_1,0.13572872662797902,33.333333333333336,stimulus_1,1.057154893875122,2,0.7243261337280273,
0164,31,9,600.0,33.333333333333336,stimulus_0,0.13238039147485142,33.333333333333336,stimulus_0,1.0580949783325195,2,0.785775899887085,
0164,32,9,583.3333333333334,33.333333333333336,stimulus_0,0.12893300295346477,33.333333333333336,stimulus_0,1.8498940467834473,2,0.7868759632110596,
0164,33,9,691.6666666666667,33.333333333333336,stimulus_0,0.125704881891662,33.333333333333336,stimulus_1,1.2594680786132812,2,0.8753900527954102,
0164,34,9,633.3333333333334,33.333333333333336,stimulus_1,0.1346634976825511,33.333333333333336,stimulus_1,1.9110538959503174,1,0.7881579399108887,
0164,35,9,625.0,33.333333333333336,stimulus_1,0.13155181895017964,33.333333333333336,stimulus_0,1.9405879974365234,2,0.7994351387023926,
0164,36,9,641.6666666666667,33.333333333333336,stimulus_0,0.13950382564906816,33.333333333333336,stimulus_0,1.0293638706207275,3,0.6626639366149902,
0164,37,9,575.0,33.333333333333336,stimulus_0,0.1366743207849142,33.333333333333336,stimulus_0,1.404977798461914,2,0.7349729537963867,
0164,38,9,625.0,33.333333333333336,stimulus_1,0.133999924746449,33.333333333333336,stimulus_1,0.8483538627624512,3,0.8345789909362793,
0164,39,9,625.0,33.333333333333336,stimulus_1,0.1312405088680289,33.333333333333336,stimulus_1,1.0602431297302246,2,0.788877010345459,
