subject,trial_number,staircase_number,fixation_duration_ms,target_duration_ms,target_type,target_contrast,mask_duration_ms,objective_response,objective_response_time_ms,subjective_response,subjective_response_time_ms
0165,0,0,658.3333333333334,33.333333333333336,stimulus_1,0.4,33.333333333333336,stimulus_1,3.895176887512207,1,1.116703987121582,
0165,1,0,750.0,33.333333333333336,stimulus_0,0.2509879745459487,33.333333333333336,stimulus_1,4.09854793548584,1,0.8810880184173584,
0165,2,0,683.3333333333334,33.333333333333336,stimulus_1,0.41338283393965464,33.333333333333336,stimulus_1,2.170811176300049,3,2.965833902359009,
0165,3,0,625.0,33.333333333333336,stimulus_0,0.36442478598869543,33.333333333333336,stimulus_0,2.103734016418457,3,3.186897039413452,
0165,4,0,550.0,33.333333333333336,stimulus_1,0.3303856791680673,33.333333333333336,stimulus_1,1.565039873123169,2,0.7477898597717285,
0165,5,0,566.6666666666667,33.333333333333336,stimulus_0,0.30413303756875115,33.333333333333336,stimulus_0,1.2346909046173096,3,2.160337209701538,
0165,6,0,675.0,33.333333333333336,stimulus_0,0.28138160497571485,33.333333333333336,stimulus_0,1.1784331798553467,2,0.6848568916320801,
0165,7,0,533.3333333333334,33.333333333333336,stimulus_1,0.26153612124152487,33.333333333333336,stimulus_1,1.552757978439331,3,1.6470849514007568,
0165,8,0,733.3333333333334,33.333333333333336,stimulus_0,0.24331383750204114,33.333333333333336,stimulus_0,2.6797139644622803,2,0.7237281799316406,
0165,9,0,725.0,33.333333333333336,stimulus_0,0.22588979572281392,33.333333333333336,stimulus_0,1.2657709121704102,2,4.139668941497803,
0165,10,0,625.0,33.333333333333336,stimulus_1,0.20982802631838735,33.333333333333336,stimulus_1,1.2872209548950195,3,1.1502091884613037,
0165,11,0,600.0,33.333333333333336,stimulus_1,0.19324737655618746,33.333333333333336,stimulus_1,1.211712121963501,3,2.537992000579834,
0165,12,0,558.3333333333334,33.333333333333336,stimulus_1,0.17547116767896656,33.333333333333336,stimulus_1,1.6056699752807617,2,2.4039931297302246,
0165,13,0,508.33333333333337,33.333333333333336,stimulus_0,0.15695884494657253,33.333333333333336,stimulus_0,1.5441360473632812,2,2.1556828022003174,
0165,14,0,675.0,33.333333333333336,stimulus_1,0.1347568167431284,33.333333333333336,stimulus_1,4.749807834625244,3,1.3990259170532227,
0165,15,0,608.3333333333334,33.333333333333336,stimulus_0,0.10280484015554237,33.333333333333336,stimulus_0,3.5456509590148926,4,6.441055059432983,
0165,16,0,716.6666666666667,33.333333333333336,stimulus_0,0.053711646596574736,33.333333333333336,stimulus_0,1.7350001335144043,3,1.1287541389465332,
0165,17,0,650.0,33.333333333333336,stimulus_1,0.01,33.333333333333336,stimulus_0,2.776324987411499,2,1.253654956817627,
0165,18,0,533.3333333333334,33.333333333333336,stimulus_1,0.10783410120008474,33.333333333333336,stimulus_1,1.1856379508972168,3,1.4308748245239258,
0165,19,0,675.0,33.333333333333336,stimulus_0,0.08784585089981278,33.333333333333336,stimulus_0,2.1115190982818604,2,1.1483380794525146,
0165,20,0,608.3333333333334,33.333333333333336,stimulus_0,0.06604418031853215,33.333333333333336,stimulus_0,1.49003005027771,2,0.44889402389526367,
0165,21,0,550.0,33.333333333333336,stimulus_1,0.04458280903021222,33.333333333333336,stimulus_1,1.0499448776245117,3,1.9273900985717773,
0165,22,0,725.0,33.333333333333336,stimulus_0,0.023804958781386276,33.333333333333336,stimulus_0,1.0018680095672607,3,0.4229271411895752,
0165,23,0,625.0,33.333333333333336,stimulus_1,0.01,33.333333333333336,stimulus_0,1.751513957977295,2,0.4373950958251953,
0165,24,0,616.6666666666667,33.333333333333336,stimulus_1,0.04764535685677429,33.333333333333336,stimulus_0,2.4933021068573,2,1.2806899547576904,
0165,25,0,641.6666666666667,33.333333333333336,stimulus_0,0.08273570005889164,33.333333333333336,stimulus_0,0.7727839946746826,3,4.113551139831543,
0165,26,0,525.0,33.333333333333336,stimulus_0,0.07152342682870422,33.333333333333336,stimulus_0,2.1691811084747314,2,1.292551040649414,
0165,27,0,700.0,33.333333333333336,stimulus_1,0.06090018077552756,33.333333333333336,stimulus_1,3.2498080730438232,2,4.790946006774902,
0165,28,0,733.3333333333334,33.333333333333336,stimulus_0,0.05103077687927787,33.333333333333336,stimulus_0,4.582386016845703,2,2.822312831878662,
0165,29,0,725.0,33.333333333333336,stimulus_1,0.04195223087135319,33.333333333333336,stimulus_0,3.047999858856201,1,1.358335018157959,
0165,30,0,741.6666666666667,33.333333333333336,stimulus_0,0.06402448854785003,33.333333333333336,stimulus_0,1.7429208755493164,2,0.4534800052642822,
0165,31,0,683.3333333333334,33.333333333333336,stimulus_1,0.05605111223840936,33.333333333333336,stimulus_1,1.207873821258545,2,3.573086977005005,
0165,32,0,583.3333333333334,33.333333333333336,stimulus_1,0.04896595185480962,33.333333333333336,stimulus_0,4.980650901794434,1,0.582766056060791,
0165,33,0,541.6666666666667,33.333333333333336,stimulus_1,0.06741244683474051,33.333333333333336,stimulus_0,4.340390920639038,1,1.1806199550628662,
0165,34,0,616.6666666666667,33.333333333333336,stimulus_0,0.08486240128378536,33.333333333333336,stimulus_0,1.1437630653381348,3,0.6042618751525879,
0165,35,0,516.6666666666667,33.333333333333336,stimulus_0,0.07884343309534247,33.333333333333336,stimulus_0,1.0124518871307373,3,0.8972361087799072,
0165,36,0,525.0,33.333333333333336,stimulus_1,0.07328882193699349,33.333333333333336,stimulus_1,3.3926119804382324,2,1.1857240200042725,
0165,37,0,541.6666666666667,33.333333333333336,stimulus_0,0.06777326797803557,33.333333333333336,stimulus_0,1.1414198875427246,3,0.3799631595611572,
0165,38,0,625.0,33.333333333333336,stimulus_1,0.0627273657210427,33.333333333333336,stimulus_1,1.4598150253295898,2,0.4116218090057373,
0165,39,0,625.0,33.333333333333336,stimulus_0,0.057719515268259636,33.333333333333336,stimulus_0,0.8501198291778564,3,0.37332987785339355,
0165,0,1,683.3333333333334,33.333333333333336,stimulus_0,0.4,33.333333333333336,stimulus_0,1.101444959640503,3,0.6014230251312256,
0165,1,1,591.6666666666667,33.333333333333336,stimulus_1,0.2509879745459487,33.333333333333336,stimulus_1,1.2955567836761475,4,0.5927679538726807,
0165,2,1,533.3333333333334,33.333333333333336,stimulus_1,0.15302949805965513,33.333333333333336,stimulus_1,1.2290518283843994,4,1.3598170280456543,
0165,3,1,741.6666666666667,33.333333333333336,stimulus_0,0.07447047493079645,33.333333333333336,stimulus_0,3.365109920501709,3,1.7560679912567139,
0165,4,1,525.0,33.333333333333336,stimulus_1,0.01,33.333333333333336,stimulus_0,1.3885250091552734,2,1.2912847995758057,
0165,5,1,558.3333333333334,33.333333333333336,stimulus_1,0.1153395389209863,33.333333333333336,stimulus_1,0.8614230155944824,3,0.6023130416870117,
0165,6,1,641.6666666666667,33.333333333333336,stimulus_0,0.08765518823841861,33.333333333333336,stimulus_0,1.5505108833312988,4,0.40653300285339355,
0165,7,1,541.6666666666667,33.333333333333336,stimulus_0,0.0645285831773651,33.333333333333336,stimulus_0,0.6767630577087402,4,0.49799203872680664,
0165,8,1,633.3333333333334,33.333333333333336,stimulus_0,0.04384644936456128,33.333333333333336,stimulus_0,1.3888609409332275,3,0.38765478134155273,
0165,9,1,725.0,33.333333333333336,stimulus_1,0.02561117919315764,33.333333333333336,stimulus_1,2.036256790161133,2,0.7170040607452393,
0165,10,1,625.0,33.333333333333336,stimulus_0,0.01,33.333333333333336,stimulus_0,1.681121826171875,2,0.34813618659973145,
0165,11,1,716.6666666666667,33.333333333333336,stimulus_1,0.01,33.333333333333336,stimulus_0,3.1799099445343018,2,1.2057220935821533,
0165,12,1,516.6666666666667,33.333333333333336,stimulus_0,0.03294969715543655,33.333333333333336,stimulus_0,3.1239659786224365,1,0.5470678806304932,
0165,13,1,725.0,33.333333333333336,stimulus_0,0.022293984224143748,33.333333333333336,stimulus_0,2.613281011581421,2,3.352052927017212,
0165,14,1,558.3333333333334,33.333333333333336,stimulus_1,0.01251688606563911,33.333333333333336,stimulus_0,4.623302936553955,1,0.40514516830444336,
0165,15,1,683.3333333333334,33.333333333333336,stimulus_1,0.035680721357440714,33.333333333333336,stimulus_0,3.136798143386841,1,0.49719810485839844,
0165,16,1,666.6666666666667,33.333333333333336,stimulus_0,0.05739290515813994,33.333333333333336,stimulus_0,1.6142950057983398,1,1.3952159881591797,
0165,17,1,741.6666666666667,33.333333333333336,stimulus_1,0.050208518018710124,33.333333333333336,stimulus_0,5.034798860549927,1,2.2998721599578857,
0165,18,1,750.0,33.333333333333336,stimulus_0,0.06842857096442934,33.333333333333336,stimulus_0,1.2585909366607666,2,1.898486852645874,
0165,19,1,750.0,33.333333333333336,stimulus_1,0.06210767322752736,33.333333333333336,stimulus_1,1.865422010421753,2,0.48914217948913574,
0165,20,1,525.0,33.333333333333336,stimulus_0,0.05603504734315329,33.333333333333336,stimulus_0,1.241753101348877,2,1.5812170505523682,
0165,21,1,741.6666666666667,33.333333333333336,stimulus_0,0.050556638071458326,33.333333333333336,stimulus_0,1.860285997390747,3,3.2151260375976562,
0165,22,1,750.0,33.333333333333336,stimulus_1,0.045240551552504615,33.333333333333336,stimulus_1,1.3231310844421387,3,1.0077168941497803,
0165,23,1,600.0,33.333333333333336,stimulus_1,0.040361180680952125,33.333333333333336,stimulus_0,2.6355531215667725,2,1.0190839767456055,
0165,24,1,683.3333333333334,33.333333333333336,stimulus_1,0.05333378296703856,33.333333333333336,stimulus_0,1.0968871116638184,3,0.7373330593109131,
0165,25,1,658.3333333333334,33.333333333333336,stimulus_1,0.06546910686681051,33.333333333333336,stimulus_1,2.217600107192993,3,0.6088860034942627,
0165,26,1,666.6666666666667,33.333333333333336,stimulus_0,0.06119827270593431,33.333333333333336,stimulus_0,0.8317010402679443,3,1.828028917312622,
0165,27,1,525.0,33.333333333333336,stimulus_0,0.05695476915842279,33.333333333333336,stimulus_0,7.1180219650268555,1,0.5993530750274658,
0165,28,1,666.6666666666667,33.333333333333336,stimulus_0,0.053050754227588426,33.333333333333336,stimulus_0,0.7768959999084473,2,1.3851759433746338,
0165,29,1,525.0,33.333333333333336,stimulus_1,0.04910153594826827,33.333333333333336,stimulus_1,1.2016310691833496,2,0.5856940746307373,
0165,30,1,633.3333333333334,33.333333333333336,stimulus_0,0.04545410934614069,33.333333333333336,stimulus_0,0.998870849609375,2,1.8412530422210693,
0165,31,1,716.6666666666667,33.333333333333336,stimulus_1,0.042025710728434584,33.333333333333336,stimulus_0,3.0444700717926025,2,0.39466404914855957,
0165,32,1,666.6666666666667,33.333333333333336,stimulus_0,0.05125511010096834,33.333333333333336,stimulus_0,4.13543701171875,2,1.6706368923187256,
0165,33,1,583.3333333333334,33.333333333333336,stimulus_0,0.04788508740029729,33.333333333333336,stimulus_0,6.021104097366333,2,2.1557469367980957,
0165,34,1,583.3333333333334,33.333333333333336,stimulus_1,0.04475692802085007,33.333333333333336,stimulus_0,3.0540549755096436,2,8.591371059417725,
0165,35,1,575.0,33.333333333333336,stimulus_1,0.05296944943352622,33.333333333333336,stimulus_0,1.907412052154541,1,0.48847198486328125,
0165,36,1,608.3333333333334,33.333333333333336,stimulus_0,0.061054500895270924,33.333333333333336,stimulus_0,5.642046928405762,2,3.5958590507507324,
0165,37,1,658.3333333333334,33.333333333333336,stimulus_1,0.05806251726003264,33.333333333333336,stimulus_1,3.1092538833618164,1,0.6726880073547363,
0165,38,1,600.0,33.333333333333336,stimulus_0,0.05527780182609271,33.333333333333336,stimulus_0,1.1789119243621826,2,1.181091070175171,
0165,39,1,500.00000000000006,33.333333333333336,stimulus_1,0.05262525515555122,33.333333333333336,stimulus_1,2.050877094268799,2,2.669010877609253,
0165,0,2,733.3333333333334,33.333333333333336,stimulus_0,0.4,33.333333333333336,stimulus_0,1.5683259963989258,3,1.3306069374084473,
0165,1,2,741.6666666666667,33.333333333333336,stimulus_1,0.2509879745459487,33.333333333333336,stimulus_0,1.327692985534668,4,11.329523086547852,
0165,2,2,591.6666666666667,33.333333333333336,stimulus_1,0.41338283393965464,33.333333333333336,stimulus_1,1.677649974822998,4,0.7746930122375488,
0165,3,2,633.3333333333334,33.333333333333336,stimulus_0,0.36442478598869543,33.333333333333336,stimulus_0,0.6462512016296387,4,0.5798161029815674,
0165,4,2,725.0,33.333333333333336,stimulus_0,0.3303856791680673,33.333333333333336,stimulus_0,0.8146498203277588,4,1.011512041091919,
0165,5,2,500.00000000000006,33.333333333333336,stimulus_1,0.30413303756875115,33.333333333333336,stimulus_1,1.0549750328063965,4,0.6491799354553223,
0165,6,2,650.0,33.333333333333336,stimulus_1,0.28138160497571485,33.333333333333336,stimulus_1,0.8753690719604492,4,0.4585409164428711,
0165,7,2,508.33333333333337,33.333333333333336,stimulus_0,0.26153612124152487,33.333333333333336,stimulus_0,0.5967209339141846,4,0.35831594467163086,
0165,8,2,633.3333333333334,33.333333333333336,stimulus_0,0.24331383750204114,33.333333333333336,stimulus_0,0.672551155090332,4,0.40109682083129883,
0165,9,2,566.6666666666667,33.333333333333336,stimulus_0,0.22588979572281392,33.333333333333336,stimulus_0,1.1623170375823975,4,0.36609888076782227,
0165,10,2,558.3333333333334,33.333333333333336,stimulus_1,0.20982802631838735,33.333333333333336,stimulus_1,1.158384084701538,4,0.37013912200927734,
0165,11,2,575.0,33.333333333333336,stimulus_1,0.19324737655618746,33.333333333333336,stimulus_1,1.121953010559082,4,0.4084751605987549,
0165,12,2,591.6666666666667,33.333333333333336,stimulus_1,0.17547116767896656,33.333333333333336,stimulus_1,1.4563660621643066,3,1.2096209526062012,
0165,13,2,625.0,33.333333333333336,stimulus_0,0.15695884494657253,33.333333333333336,stimulus_0,1.3407938480377197,4,0.31349706649780273,
0165,14,2,616.6666666666667,33.333333333333336,stimulus_1,0.1347568167431284,33.333333333333336,stimulus_1,0.9576890468597412,3,0.7052738666534424,
0165,15,2,716.6666666666667,33.333333333333336,stimulus_0,0.10280484015554237,33.333333333333336,stimulus_0,2.318558931350708,4,0.5228409767150879,
0165,16,2,525.0,33.333333333333336,stimulus_1,0.053711646596574736,33.333333333333336,stimulus_1,1.4519798755645752,4,0.8431520462036133,
0165,17,2,650.0,33.333333333333336,stimulus_1,0.01,33.333333333333336,stimulus_0,1.5362811088562012,3,0.319105863571167,
0165,18,2,733.3333333333334,33.333333333333336,stimulus_0,0.10783410120008474,33.333333333333336,stimulus_0,1.8400487899780273,2,1.4317750930786133,
0165,19,2,608.3333333333334,33.333333333333336,stimulus_0,0.08784585089981278,33.333333333333336,stimulus_0,1.5100889205932617,3,0.38291382789611816,
0165,20,2,750.0,33.333333333333336,stimulus_0,0.06604418031853215,33.333333333333336,stimulus_0,0.9234309196472168,2,0.5509650707244873,
0165,21,2,625.0,33.333333333333336,stimulus_1,0.04458280903021222,33.333333333333336,stimulus_1,0.8547911643981934,2,1.1120309829711914,
0165,22,2,508.33333333333337,33.333333333333336,stimulus_0,0.023804958781386276,33.333333333333336,stimulus_0,0.8571889400482178,3,2.1124980449676514,
0165,23,2,600.0,33.333333333333336,stimulus_1,0.01,33.333333333333336,stimulus_0,1.5457639694213867,2,0.3212110996246338,
0165,24,2,500.00000000000006,33.333333333333336,stimulus_0,0.04764535685677429,33.333333333333336,stimulus_0,0.9984350204467773,2,0.42787885665893555,
0165,25,2,691.6666666666667,33.333333333333336,stimulus_1,0.03458560859082832,33.333333333333336,stimulus_0,3.4653048515319824,2,0.29760289192199707,
0165,26,2,608.3333333333334,33.333333333333336,stimulus_0,0.0652674175648913,33.333333333333336,stimulus_0,0.7255239486694336,2,0.5738048553466797,
0165,27,2,575.0,33.333333333333336,stimulus_1,0.05486223032490184,33.333333333333336,stimulus_1,1.8009049892425537,2,2.167914867401123,
0165,28,2,600.0,33.333333333333336,stimulus_1,0.04468067317754809,33.333333333333336,stimulus_0,2.9839351177215576,2,1.0143940448760986,
0165,29,2,741.6666666666667,33.333333333333336,stimulus_1,0.0681843282051377,33.333333333333336,stimulus_1,1.011033058166504,3,2.4080810546875,
0165,30,2,533.3333333333334,33.333333333333336,stimulus_0,0.05989324769243609,33.333333333333336,stimulus_0,1.2252559661865234,3,0.7103989124298096,
0165,31,2,575.0,33.333333333333336,stimulus_0,0.05209121876022288,33.333333333333336,stimulus_0,4.525080919265747,2,1.0670499801635742,
0165,32,2,516.6666666666667,33.333333333333336,stimulus_0,0.04473911759577315,33.333333333333336,stimulus_0,1.0165109634399414,2,1.6530699729919434,
0165,33,2,741.6666666666667,33.333333333333336,stimulus_1,0.03779979980932974,33.333333333333336,stimulus_1,1.7691681385040283,1,0.391463041305542,
0165,34,2,641.6666666666667,33.333333333333336,stimulus_0,0.03167779917158464,33.333333333333336,stimulus_1,1.8970990180969238,1,1.2803950309753418,
0165,35,2,700.0,33.333333333333336,stimulus_1,0.0473160515823397,33.333333333333336,stimulus_1,6.136528968811035,2,1.7624359130859375,
0165,36,2,700.0,33.333333333333336,stimulus_1,0.04176831308152179,33.333333333333336,stimulus_0,7.377106189727783,1,0.5386619567871094,
0165,37,2,550.0,33.333333333333336,stimulus_0,0.05610104448980746,33.333333333333336,stimulus_1,6.071238040924072,1,0.311920166015625,
0165,38,2,700.0,33.333333333333336,stimulus_1,0.07063863739083032,33.333333333333336,stimulus_1,1.8054640293121338,2,1.5015640258789062,
0165,39,2,583.3333333333334,33.333333333333336,stimulus_0,0.06564351954597242,33.333333333333336,stimulus_0,1.0448839664459229,3,0.39037179946899414,
0165,0,3,616.6666666666667,33.333333333333336,stimulus_0,0.4,33.333333333333336,stimulus_0,1.0940260887145996,4,0.8149909973144531,
0165,1,3,733.3333333333334,33.333333333333336,stimulus_1,0.2509879745459487,33.333333333333336,stimulus_1,0.8966429233551025,4,0.39957499504089355,
0165,2,3,650.0,33.333333333333336,stimulus_1,0.15302949805965513,33.333333333333336,stimulus_1,0.6064980030059814,4,0.39874911308288574,
0165,3,3,541.6666666666667,33.333333333333336,stimulus_0,0.07447047493079645,33.333333333333336,stimulus_0,0.6182968616485596,4,0.2178199291229248,
0165,4,3,650.0,33.333333333333336,stimulus_1,0.01,33.333333333333336,stimulus_0,1.9531328678131104,3,2.6682920455932617,
0165,5,3,558.3333333333334,33.333333333333336,stimulus_0,0.1153395389209863,33.333333333333336,stimulus_0,2.4818339347839355,4,0.3117508888244629,
0165,6,3,575.0,33.333333333333336,stimulus_0,0.08765518823841861,33.333333333333336,stimulus_0,0.8202829360961914,4,0.44089698791503906,
0165,7,3,616.6666666666667,33.333333333333336,stimulus_1,0.0645285831773651,33.333333333333336,stimulus_1,0.9107589721679688,4,0.6006510257720947,
0165,8,3,750.0,33.333333333333336,stimulus_1,0.04384644936456128,33.333333333333336,stimulus_1,4.789719820022583,2,0.30110907554626465,
0165,9,3,508.33333333333337,33.333333333333336,stimulus_0,0.02561117919315764,33.333333333333336,stimulus_1,1.1884379386901855,3,1.1152288913726807,
0165,10,3,683.3333333333334,33.333333333333336,stimulus_1,0.06657659810876931,33.333333333333336,stimulus_1,0.9253251552581787,4,0.5135469436645508,
0165,11,3,516.6666666666667,33.333333333333336,stimulus_0,0.05431663223708755,33.333333333333336,stimulus_1,0.841400146484375,4,1.9090580940246582,
0165,12,3,691.6666666666667,33.333333333333336,stimulus_0,0.08290875541325565,33.333333333333336,stimulus_1,0.6706008911132812,4,0.329146146774292,
0165,13,3,708.3333333333334,33.333333333333336,stimulus_1,0.1089049689805709,33.333333333333336,stimulus_1,0.6440401077270508,4,0.48030710220336914,
0165,14,3,566.6666666666667,33.333333333333336,stimulus_0,0.09968890074435871,33.333333333333336,stimulus_1,0.6556191444396973,4,6.035096168518066,
0165,15,3,650.0,33.333333333333336,stimulus_1,0.12226301312714516,33.333333333333336,stimulus_1,1.2125580310821533,4,0.5783600807189941,
0165,16,3,700.0,33.333333333333336,stimulus_0,0.11420536726461689,33.333333333333336,stimulus_0,0.7093160152435303,4,0.5901949405670166,
0165,17,3,733.3333333333334,33.333333333333336,stimulus_0,0.10672548788322489,33.333333333333336,stimulus_0,2.44543194770813,4,0.4656219482421875,
0165,18,3,558.3333333333334,33.333333333333336,stimulus_1,0.1001367813489159,33.333333333333336,stimulus_1,1.9049580097198486,3,0.9250121116638184,
0165,19,3,500.00000000000006,33.333333333333336,stimulus_1,0.09389619033263852,33.333333333333336,stimulus_1,0.7917399406433105,3,1.4204370975494385,
0165,20,3,558.3333333333334,33.333333333333336,stimulus_0,0.08787256953377198,33.333333333333336,stimulus_0,1.435148000717163,4,0.5158989429473877,
0165,21,3,525.0,33.333333333333336,stimulus_0,0.08245611576344519,33.333333333333336,stimulus_0,2.638540029525757,4,0.7550978660583496,
0165,22,3,591.6666666666667,33.333333333333336,stimulus_1,0.07713767995706977,33.333333333333336,stimulus_1,1.2112629413604736,4,0.5870471000671387,
0165,23,3,641.6666666666667,33.333333333333336,stimulus_1,0.07229691918238557,33.333333333333336,stimulus_1,0.9359180927276611,4,0.4837331771850586,
0165,24,3,525.0,33.333333333333336,stimulus_1,0.06748056027052413,33.333333333333336,stimulus_0,1.3783209323883057,3,1.3003430366516113,
0165,25,3,650.0,33.333333333333336,stimulus_0,0.07996879032288118,33.333333333333336,stimulus_0,3.8321290016174316,4,0.30225706100463867,
0165,26,3,558.3333333333334,33.333333333333336,stimulus_1,0.07568864634181766,33.333333333333336,stimulus_1,1.9078340530395508,3,0.8554878234863281,
0165,27,3,533.3333333333334,33.333333333333336,stimulus_0,0.07170697113793584,33.333333333333336,stimulus_0,2.0621402263641357,4,0.4358499050140381,
0165,28,3,708.3333333333334,33.333333333333336,stimulus_0,0.06769001332496744,33.333333333333336,stimulus_0,1.147796869277954,4,0.5495481491088867,
0165,29,3,691.6666666666667,33.333333333333336,stimulus_0,0.06397706979761753,33.333333333333336,stimulus_0,1.7007272243499756,3,0.5699138641357422,
0165,30,3,650.0,33.333333333333336,stimulus_1,0.06020539184152002,33.333333333333336,stimulus_1,1.5646109580993652,3,0.5368351936340332,
0165,31,3,616.6666666666667,33.333333333333336,stimulus_1,0.056655291048683776,33.333333333333336,stimulus_1,1.1044540405273438,3,1.9340150356292725,
0165,32,3,633.3333333333334,33.333333333333336,stimulus_0,0.053331775599361086,33.333333333333336,stimulus_0,1.2867929935455322,3,0.38466596603393555,
0165,33,3,750.0,33.333333333333336,stimulus_1,0.04991439370861239,33.333333333333336,stimulus_1,2.0135960578918457,3,0.9680099487304688,
0165,34,3,516.6666666666667,33.333333333333336,stimulus_1,0.04668414552046107,33.333333333333336,stimulus_1,1.919240951538086,2,0.41386890411376953,
0165,35,3,650.0,33.333333333333336,stimulus_0,0.043641486596338264,33.333333333333336,stimulus_0,1.5632522106170654,2,2.569291114807129,
0165,36,3,633.3333333333334,33.333333333333336,stimulus_1,0.04050225317424028,33.333333333333336,stimulus_0,2.285465955734253,1,0.66451096534729,
0165,37,3,566.6666666666667,33.333333333333336,stimulus_0,0.048603068516279435,33.333333333333336,stimulus_0,2.1004230976104736,2,1.7454829216003418,
0165,38,3,625.0,33.333333333333336,stimulus_0,0.04579522523557994,33.333333333333336,stimulus_0,3.526630163192749,2,1.130364179611206,
0165,39,3,533.3333333333334,33.333333333333336,stimulus_1,0.04312007499932491,33.333333333333336,stimulus_1,1.130737066268921,2,1.998054027557373,
0165,0,4,641.6666666666667,33.333333333333336,stimulus_0,0.4,33.333333333333336,stimulus_0,1.0430901050567627,4,1.4023261070251465,
0165,1,4,600.0,33.333333333333336,stimulus_1,0.2509879745459487,33.333333333333336,stimulus_1,0.9929771423339844,4,0.5824248790740967,
0165,2,4,525.0,33.333333333333336,stimulus_1,0.15302949805965513,33.333333333333336,stimulus_1,0.7453100681304932,4,0.48093295097351074,
0165,3,4,500.00000000000006,33.333333333333336,stimulus_0,0.07447047493079645,33.333333333333336,stimulus_0,0.5521860122680664,4,0.3670370578765869,
0165,4,4,725.0,33.333333333333336,stimulus_0,0.01,33.333333333333336,stimulus_0,1.768293857574463,2,0.7927091121673584,
0165,5,4,500.00000000000006,33.333333333333336,stimulus_0,0.01,33.333333333333336,stimulus_0,1.2538628578186035,2,0.41399097442626953,
0165,6,4,591.6666666666667,33.333333333333336,stimulus_1,0.01,33.333333333333336,stimulus_1,2.944013833999634,1,0.3231070041656494,
0165,7,4,625.0,33.333333333333336,stimulus_1,0.01,33.333333333333336,stimulus_0,2.361264944076538,2,1.1727499961853027,
0165,8,4,591.6666666666667,33.333333333333336,stimulus_1,0.014195482091139966,33.333333333333336,stimulus_1,7.0294530391693115,1,2.116708993911743,
0165,9,4,683.3333333333334,33.333333333333336,stimulus_0,0.01,33.333333333333336,stimulus_0,2.2352638244628906,2,1.001065969467163,
0165,10,4,500.00000000000006,33.333333333333336,stimulus_0,0.01,33.333333333333336,stimulus_0,1.0553879737854004,2,0.6418969631195068,
0165,11,4,708.3333333333334,33.333333333333336,stimulus_1,0.01,33.333333333333336,stimulus_1,4.197504043579102,2,1.3919761180877686,
0165,12,4,625.0,33.333333333333336,stimulus_0,0.01,33.333333333333336,stimulus_0,2.278528928756714,2,1.2618591785430908,
0165,13,4,683.3333333333334,33.333333333333336,stimulus_0,0.01,33.333333333333336,stimulus_0,4.024096965789795,2,2.56923508644104,
0165,14,4,558.3333333333334,33.333333333333336,stimulus_1,0.01,33.333333333333336,stimulus_1,1.7468209266662598,1,0.31418299674987793,
0165,15,4,716.6666666666667,33.333333333333336,stimulus_1,0.01,33.333333333333336,stimulus_0,2.380768060684204,1,0.5851850509643555,
0165,16,4,583.3333333333334,33.333333333333336,stimulus_0,0.01,33.333333333333336,stimulus_0,3.509819984436035,1,0.7142961025238037,
0165,17,4,708.3333333333334,33.333333333333336,stimulus_1,0.01,33.333333333333336,stimulus_1,4.723641872406006,1,0.24844717979431152,
0165,18,4,683.3333333333334,33.333333333333336,stimulus_0,0.01,33.333333333333336,stimulus_0,2.9914510250091553,1,0.7300021648406982,
0165,19,4,541.6666666666667,33.333333333333336,stimulus_1,0.01,33.333333333333336,stimulus_0,1.9204051494598389,1,4.343839168548584,
0165,20,4,683.3333333333334,33.333333333333336,stimulus_1,0.01,33.333333333333336,stimulus_1,3.5830559730529785,1,0.2707180976867676,
0165,21,4,533.3333333333334,33.333333333333336,stimulus_0,0.01,33.333333333333336,stimulus_0,1.780717134475708,1,0.3667309284210205,
0165,22,4,641.6666666666667,33.333333333333336,stimulus_0,0.01,33.333333333333336,stimulus_0,1.8294010162353516,1,0.8294229507446289,
0165,23,4,516.6666666666667,33.333333333333336,stimulus_1,0.01,33.333333333333336,stimulus_1,1.7855889797210693,1,0.7673130035400391,
0165,24,4,741.6666666666667,33.333333333333336,stimulus_0,0.01,33.333333333333336,stimulus_1,4.960010051727295,1,0.2761080265045166,
0165,25,4,516.6666666666667,33.333333333333336,stimulus_0,0.01,33.333333333333336,stimulus_0,1.069429874420166,2,1.0579030513763428,
0165,26,4,575.0,33.333333333333336,stimulus_1,0.01,33.333333333333336,stimulus_0,3.2858850955963135,1,0.528947114944458,
0165,27,4,700.0,33.333333333333336,stimulus_1,0.01,33.333333333333336,stimulus_0,3.257843017578125,1,0.5247020721435547,
0165,28,4,741.6666666666667,33.333333333333336,stimulus_0,0.01,33.333333333333336,stimulus_0,2.7274529933929443,1,3.1495120525360107,
0165,29,4,558.3333333333334,33.333333333333336,stimulus_0,0.01,33.333333333333336,stimulus_0,1.8726489543914795,1,0.39209890365600586,
0165,30,4,641.6666666666667,33.333333333333336,stimulus_1,0.01,33.333333333333336,stimulus_0,5.153563022613525,1,0.36942005157470703,
0165,31,4,541.6666666666667,33.333333333333336,stimulus_1,0.011226878535881724,33.333333333333336,stimulus_1,6.191123962402344,1,0.3437938690185547,
0165,32,4,616.6666666666667,33.333333333333336,stimulus_1,0.01,33.333333333333336,stimulus_0,1.8232359886169434,1,0.24675202369689941,
0165,33,4,525.0,33.333333333333336,stimulus_1,0.016851950230792223,33.333333333333336,stimulus_0,1.636573076248169,1,0.42978596687316895,
0165,34,4,708.3333333333334,33.333333333333336,stimulus_0,0.025718005059993665,33.333333333333336,stimulus_0,2.3322269916534424,1,0.4514279365539551,
0165,35,4,566.6666666666667,33.333333333333336,stimulus_0,0.022748840208215437,33.333333333333336,stimulus_0,4.755602121353149,1,0.2902820110321045,
0165,36,4,583.3333333333334,33.333333333333336,stimulus_1,0.01968667636966559,33.333333333333336,stimulus_1,1.1564829349517822,1,0.25457191467285156,
0165,37,4,708.3333333333334,33.333333333333336,stimulus_0,0.016822318741040787,33.333333333333336,stimulus_0,2.3983099460601807,1,0.24229192733764648,
0165,38,4,741.6666666666667,33.333333333333336,stimulus_0,0.014125981722531378,33.333333333333336,stimulus_1,1.6609539985656738,1,0.43976593017578125,
0165,39,4,750.0,33.333333333333336,stimulus_1,0.021335459137671875,33.333333333333336,stimulus_0,1.24924898147583,1,0.2795400619506836,
0165,0,5,583.3333333333334,33.333333333333336,stimulus_0,0.4,33.333333333333336,stimulus_0,1.5307469367980957,3,1.157438039779663,
0165,1,5,708.3333333333334,33.333333333333336,stimulus_1,0.2509879745459487,33.333333333333336,stimulus_1,1.4058418273925781,4,0.562952995300293,
0165,2,5,516.6666666666667,33.333333333333336,stimulus_0,0.15302949805965513,33.333333333333336,stimulus_0,0.9268631935119629,4,0.9621450901031494,
0165,3,5,700.0,33.333333333333336,stimulus_1,0.07447047493079645,33.333333333333336,stimulus_1,1.4956130981445312,3,0.6649889945983887,
0165,4,5,541.6666666666667,33.333333333333336,stimulus_1,0.01,33.333333333333336,stimulus_0,2.131880044937134,2,0.5488698482513428,
0165,5,5,641.6666666666667,33.333333333333336,stimulus_0,0.1153395389209863,33.333333333333336,stimulus_0,0.8454549312591553,3,0.6609060764312744,
0165,6,5,550.0,33.333333333333336,stimulus_0,0.08765518823841861,33.333333333333336,stimulus_0,0.8474469184875488,3,0.6409950256347656,
0165,7,5,633.3333333333334,33.333333333333336,stimulus_1,0.0645285831773651,33.333333333333336,stimulus_1,1.2151849269866943,2,1.186056137084961,
0165,8,5,725.0,33.333333333333336,stimulus_0,0.04384644936456128,33.333333333333336,stimulus_0,0.8764388561248779,2,0.8656680583953857,
0165,9,5,733.3333333333334,33.333333333333336,stimulus_1,0.02561117919315764,33.333333333333336,stimulus_0,2.609934091567993,3,0.3933711051940918,
0165,10,5,641.6666666666667,33.333333333333336,stimulus_0,0.06657659810876931,33.333333333333336,stimulus_0,0.9869410991668701,4,0.9422469139099121,
0165,11,5,733.3333333333334,33.333333333333336,stimulus_1,0.05431663223708755,33.333333333333336,stimulus_1,0.7656280994415283,4,0.3507959842681885,
0165,12,5,608.3333333333334,33.333333333333336,stimulus_1,0.04274029794745687,33.333333333333336,stimulus_1,0.7062039375305176,4,0.35858798027038574,
0165,13,5,666.6666666666667,33.333333333333336,stimulus_0,0.03228088725506478,33.333333333333336,stimulus_0,0.6982131004333496,3,0.8897819519042969,
0165,14,5,725.0,33.333333333333336,stimulus_0,0.022655735698633828,33.333333333333336,stimulus_0,1.5240850448608398,3,0.3026731014251709,
0165,15,5,525.0,33.333333333333336,stimulus_1,0.013658280952037805,33.333333333333336,stimulus_0,1.022603988647461,3,0.3191039562225342,
0165,16,5,608.3333333333334,33.333333333333336,stimulus_0,0.03502454954947554,33.333333333333336,stimulus_0,0.7278258800506592,3,0.3291800022125244,
0165,17,5,541.6666666666667,33.333333333333336,stimulus_0,0.027933481981658792,33.333333333333336,stimulus_0,1.0993759632110596,2,1.1196539402008057,
0165,18,5,691.6666666666667,33.333333333333336,stimulus_1,0.02118072391924991,33.333333333333336,stimulus_1,2.0629429817199707,2,0.41677212715148926,
0165,19,5,666.6666666666667,33.333333333333336,stimulus_1,0.014663147730085313,33.333333333333336,stimulus_0,0.8602120876312256,2,2.6793620586395264,
0165,20,5,525.0,33.333333333333336,stimulus_1,0.030575189679123038,33.333333333333336,stimulus_0,2.551766872406006,2,0.7067809104919434,
0165,21,5,716.6666666666667,33.333333333333336,stimulus_0,0.0457863920615143,33.333333333333336,stimulus_0,0.7019619941711426,3,0.8721837997436523,
0165,22,5,683.3333333333334,33.333333333333336,stimulus_1,0.040596358491808926,33.333333333333336,stimulus_1,1.168895959854126,3,1.370560884475708,
0165,23,5,600.0,33.333333333333336,stimulus_0,0.03552765391178303,33.333333333333336,stimulus_0,0.9808621406555176,3,1.0618019104003906,
0165,24,5,500.00000000000006,33.333333333333336,stimulus_0,0.030864565260255383,33.333333333333336,stimulus_0,2.354205846786499,2,1.2243320941925049,
0165,25,5,600.0,33.333333333333336,stimulus_1,0.026247668428880988,33.333333333333336,stimulus_1,2.113740921020508,2,0.44562792778015137,
0165,26,5,616.6666666666667,33.333333333333336,stimulus_1,0.02198688637730506,33.333333333333336,stimulus_0,0.8120739459991455,3,1.945124864578247,
0165,27,5,750.0,33.333333333333336,stimulus_0,0.03327841123030295,33.333333333333336,stimulus_0,0.6787569522857666,3,0.4433329105377197,
0165,28,5,716.6666666666667,33.333333333333336,stimulus_1,0.029148415966709362,33.333333333333336,stimulus_1,1.6667451858520508,2,0.7491319179534912,
0165,29,5,583.3333333333334,33.333333333333336,stimulus_1,0.025330959034600087,33.333333333333336,stimulus_0,1.3927509784698486,2,0.510113000869751,
0165,30,5,541.6666666666667,33.333333333333336,stimulus_0,0.03581464120443095,33.333333333333336,stimulus_0,0.7066700458526611,3,2.3070051670074463,
0165,31,5,650.0,33.333333333333336,stimulus_0,0.032362465812305785,33.333333333333336,stimulus_0,0.9399979114532471,2,0.5625629425048828,
0165,32,5,700.0,33.333333333333336,stimulus_1,0.028833663349732586,33.333333333333336,stimulus_1,2.8886940479278564,1,0.36670804023742676,
0165,33,5,550.0,33.333333333333336,stimulus_0,0.02555561006785212,33.333333333333336,stimulus_0,4.616030931472778,1,0.39597010612487793,
0165,34,5,591.6666666666667,33.333333333333336,stimulus_1,0.02245648455417598,33.333333333333336,stimulus_0,3.4094090461730957,2,1.0257880687713623,
0165,35,5,733.3333333333334,33.333333333333336,stimulus_0,0.030824096783950372,33.333333333333336,stimulus_0,1.1652050018310547,2,0.5740890502929688,
0165,36,5,750.0,33.333333333333336,stimulus_1,0.027769004326552826,33.333333333333336,stimulus_0,6.410488128662109,1,0.8494129180908203,
0165,37,5,508.33333333333337,33.333333333333336,stimulus_1,0.03593536893711324,33.333333333333336,stimulus_0,6.374543905258179,1,5.288390874862671,
0165,38,5,691.6666666666667,33.333333333333336,stimulus_0,0.04399733014566287,33.333333333333336,stimulus_0,0.6213629245758057,2,0.6538240909576416,
0165,39,5,700.0,33.333333333333336,stimulus_0,0.041152146966963066,33.333333333333336,stimulus_0,0.8387830257415771,2,0.35456395149230957,
0165,0,6,691.6666666666667,33.333333333333336,stimulus_0,0.4,33.333333333333336,stimulus_0,1.0995848178863525,4,1.1428351402282715,
0165,1,6,666.6666666666667,33.333333333333336,stimulus_0,0.2509879745459487,33.333333333333336,stimulus_0,0.6731970310211182,4,0.45072293281555176,
0165,2,6,708.3333333333334,33.333333333333336,stimulus_1,0.15302949805965513,33.333333333333336,stimulus_0,0.6782529354095459,4,2.232617139816284,
0165,3,6,616.6666666666667,33.333333333333336,stimulus_1,0.28633771842292194,33.333333333333336,stimulus_1,0.6563050746917725,4,0.9064500331878662,
0165,4,6,516.6666666666667,33.333333333333336,stimulus_1,0.24998879913919678,33.333333333333336,stimulus_1,0.6643660068511963,4,0.4985060691833496,
0165,5,6,633.3333333333334,33.333333333333336,stimulus_1,0.22142643688099556,33.333333333333336,stimulus_1,0.8025069236755371,4,0.40055203437805176,
0165,6,6,650.0,33.333333333333336,stimulus_0,0.19761807270199386,33.333333333333336,stimulus_0,0.8002579212188721,4,0.4496150016784668,
0165,7,6,625.0,33.333333333333336,stimulus_0,0.1775394486735251,33.333333333333336,stimulus_0,0.6873610019683838,4,0.5043771266937256,
0165,8,6,733.3333333333334,33.333333333333336,stimulus_0,0.15965222136131638,33.333333333333336,stimulus_0,1.301764965057373,4,1.290186882019043,
0165,9,6,641.6666666666667,33.333333333333336,stimulus_1,0.14302285456392866,33.333333333333336,stimulus_1,1.111807107925415,4,0.3726778030395508,
0165,10,6,533.3333333333334,33.333333333333336,stimulus_1,0.12701803702916253,33.333333333333336,stimulus_1,0.7205469608306885,4,0.46213388442993164,
0165,11,6,650.0,33.333333333333336,stimulus_0,0.11220779048441626,33.333333333333336,stimulus_0,0.6656320095062256,4,0.3722100257873535,
0165,12,6,616.6666666666667,33.333333333333336,stimulus_1,0.09698209648549921,33.333333333333336,stimulus_1,0.9056100845336914,3,0.4969971179962158,
0165,13,6,575.0,33.333333333333336,stimulus_0,0.08200668261592553,33.333333333333336,stimulus_0,0.8570280075073242,4,0.36003613471984863,
0165,14,6,741.6666666666667,33.333333333333336,stimulus_0,0.06544571631415524,33.333333333333336,stimulus_0,0.8345439434051514,4,1.1268949508666992,
0165,15,6,541.6666666666667,33.333333333333336,stimulus_1,0.047825028510276646,33.333333333333336,stimulus_1,0.5947060585021973,4,0.31255412101745605,
0165,16,6,616.6666666666667,33.333333333333336,stimulus_0,0.026224140676445074,33.333333333333336,stimulus_0,1.420018196105957,4,0.7228379249572754,
0165,17,6,591.6666666666667,33.333333333333336,stimulus_1,0.01,33.333333333333336,stimulus_0,1.384002923965454,3,0.3510310649871826,
0165,18,6,750.0,33.333333333333336,stimulus_0,0.06089935794584822,33.333333333333336,stimulus_0,1.3997690677642822,3,0.8851430416107178,
0165,19,6,616.6666666666667,33.333333333333336,stimulus_1,0.05097849589251141,33.333333333333336,stimulus_1,1.4938721656799316,3,0.5644118785858154,
0165,20,6,658.3333333333334,33.333333333333336,stimulus_0,0.04087676681346786,33.333333333333336,stimulus_0,1.0044000148773193,3,0.31380295753479004,
0165,21,6,750.0,33.333333333333336,stimulus_1,0.030448692265728605,33.333333333333336,stimulus_1,1.617142915725708,4,0.3836488723754883,
0165,22,6,600.0,33.333333333333336,stimulus_0,0.019522775524525415,33.333333333333336,stimulus_0,0.9573609828948975,4,0.44016218185424805,
0165,23,6,500.00000000000006,33.333333333333336,stimulus_1,0.01,33.333333333333336,stimulus_1,1.1749658584594727,3,0.23291397094726562,
0165,24,6,700.0,33.333333333333336,stimulus_1,0.01,33.333333333333336,stimulus_0,2.3382110595703125,3,0.6811769008636475,
0165,25,6,600.0,33.333333333333336,stimulus_1,0.028234732719276512,33.333333333333336,stimulus_1,2.1428990364074707,3,0.44040513038635254,
0165,26,6,691.6666666666667,33.333333333333336,stimulus_0,0.020941539642425344,33.333333333333336,stimulus_0,1.4060909748077393,2,0.6234209537506104,
0165,27,6,750.0,33.333333333333336,stimulus_0,0.013405245963568346,33.333333333333336,stimulus_1,4.391624927520752,2,0.15253615379333496,
0165,28,6,691.6666666666667,33.333333333333336,stimulus_1,0.032116655840310704,33.333333333333336,stimulus_0,4.155242919921875,2,1.0469989776611328,
0165,29,6,583.3333333333334,33.333333333333336,stimulus_0,0.04700464523287423,33.333333333333336,stimulus_0,1.0388190746307373,3,0.7266569137573242,
0165,30,6,633.3333333333334,33.333333333333336,stimulus_1,0.0422459580364542,33.333333333333336,stimulus_1,0.6443181037902832,3,0.24873805046081543,
0165,31,6,666.6666666666667,33.333333333333336,stimulus_0,0.03737476795726241,33.333333333333336,stimulus_0,0.5680549144744873,3,0.23085498809814453,
0165,32,6,533.3333333333334,33.333333333333336,stimulus_1,0.03279702687805747,33.333333333333336,stimulus_1,1.7194080352783203,2,0.23288416862487793,
0165,33,6,675.0,33.333333333333336,stimulus_1,0.028086155157312886,33.333333333333336,stimulus_0,1.9393830299377441,2,0.28714680671691895,
0165,34,6,608.3333333333334,33.333333333333336,stimulus_0,0.040359458842770646,33.333333333333336,stimulus_0,1.4552948474884033,3,0.532526969909668,
0165,35,6,716.6666666666667,33.333333333333336,stimulus_0,0.0363210068655368,33.333333333333336,stimulus_0,1.1010499000549316,2,0.57352614402771,
0165,36,6,666.6666666666667,33.333333333333336,stimulus_1,0.032514985091735504,33.333333333333336,stimulus_1,1.1229300498962402,3,0.39253997802734375,
0165,37,6,525.0,33.333333333333336,stimulus_0,0.02856902651512716,33.333333333333336,stimulus_1,2.9201810359954834,2,0.16402602195739746,
0165,38,6,508.33333333333337,33.333333333333336,stimulus_0,0.038882399636016196,33.333333333333336,stimulus_0,2.860234022140503,2,2.2470340728759766,
0165,39,6,516.6666666666667,33.333333333333336,stimulus_1,0.03546357965674418,33.333333333333336,stimulus_0,2.579149007797241,2,0.4362049102783203,
0165,0,7,575.0,33.333333333333336,stimulus_1,0.4,33.333333333333336,stimulus_1,1.069021224975586,4,0.3799920082092285,
0165,1,7,525.0,33.333333333333336,stimulus_0,0.2509879745459487,33.333333333333336,stimulus_0,0.5319821834564209,4,0.8398659229278564,
0165,2,7,666.6666666666667,33.333333333333336,stimulus_0,0.15302949805965513,33.333333333333336,stimulus_0,0.5791409015655518,4,0.31783604621887207,
0165,3,7,650.0,33.333333333333336,stimulus_1,0.07447047493079645,33.333333333333336,stimulus_1,0.5566799640655518,4,0.7250049114227295,
0165,4,7,733.3333333333334,33.333333333333336,stimulus_1,0.01,33.333333333333336,stimulus_0,2.3774328231811523,3,0.3344898223876953,
0165,5,7,691.6666666666667,33.333333333333336,stimulus_0,0.1153395389209863,33.333333333333336,stimulus_0,0.8363289833068848,3,0.3071730136871338,
0165,6,7,583.3333333333334,33.333333333333336,stimulus_1,0.08765518823841861,33.333333333333336,stimulus_1,0.9566841125488281,3,0.2540309429168701,
0165,7,7,650.0,33.333333333333336,stimulus_0,0.0645285831773651,33.333333333333336,stimulus_0,1.8519601821899414,3,2.1421408653259277,
0165,8,7,516.6666666666667,33.333333333333336,stimulus_1,0.04384644936456128,33.333333333333336,stimulus_1,0.7325890064239502,3,0.256803035736084,
0165,9,7,608.3333333333334,33.333333333333336,stimulus_1,0.02561117919315764,33.333333333333336,stimulus_0,3.688530206680298,2,0.953977108001709,
0165,10,7,691.6666666666667,33.333333333333336,stimulus_0,0.06657659810876931,33.333333333333336,stimulus_0,0.9830780029296875,3,0.30986499786376953,
0165,11,7,591.6666666666667,33.333333333333336,stimulus_0,0.05431663223708755,33.333333333333336,stimulus_0,0.8057761192321777,2,0.7460060119628906,
0165,12,7,500.00000000000006,33.333333333333336,stimulus_1,0.04274029794745687,33.333333333333336,stimulus_1,0.7752048969268799,3,0.2983579635620117,
0165,13,7,600.0,33.333333333333336,stimulus_1,0.03228088725506478,33.333333333333336,stimulus_0,0.6945919990539551,3,0.2371988296508789,
0165,14,7,666.6666666666667,33.333333333333336,stimulus_0,0.0567877555144467,33.333333333333336,stimulus_0,0.9927749633789062,2,4.5088889598846436,
0165,15,7,500.00000000000006,33.333333333333336,stimulus_0,0.048552528377844795,33.333333333333336,stimulus_1,0.7896418571472168,2,2.379672050476074,
0165,16,7,733.3333333333334,33.333333333333336,stimulus_0,0.06947431541912114,33.333333333333336,stimulus_0,1.0658409595489502,2,0.586655855178833,
0165,17,7,633.3333333333334,33.333333333333336,stimulus_1,0.062337036267797186,33.333333333333336,stimulus_1,4.164091110229492,3,0.736353874206543,
0165,18,7,558.3333333333334,33.333333333333336,stimulus_0,0.05555322374654614,33.333333333333336,stimulus_0,3.473598003387451,2,0.6597709655761719,
0165,19,7,633.3333333333334,33.333333333333336,stimulus_1,0.04946874744054125,33.333333333333336,stimulus_1,0.7838301658630371,3,0.7837660312652588,
0165,20,7,558.3333333333334,33.333333333333336,stimulus_1,0.043629171444796444,33.333333333333336,stimulus_1,0.8059000968933105,2,0.3351728916168213,
0165,21,7,675.0,33.333333333333336,stimulus_1,0.03791768546810709,33.333333333333336,stimulus_0,0.9346630573272705,2,0.6005070209503174,
0165,22,7,616.6666666666667,33.333333333333336,stimulus_0,0.05242520004974266,33.333333333333336,stimulus_0,0.868992805480957,3,0.35026097297668457,
0165,23,7,733.3333333333334,33.333333333333336,stimulus_0,0.047349572128814243,33.333333333333336,stimulus_0,0.5987021923065186,3,0.27738380432128906,
0165,24,7,658.3333333333334,33.333333333333336,stimulus_0,0.042721015956429964,33.333333333333336,stimulus_0,0.6609961986541748,3,0.33153486251831055,
0165,25,7,733.3333333333334,33.333333333333336,stimulus_0,0.038095533326756637,33.333333333333336,stimulus_0,0.730849027633667,2,0.2942490577697754,
0165,26,7,516.6666666666667,33.333333333333336,stimulus_1,0.03384947120366116,33.333333333333336,stimulus_1,0.9398040771484375,2,0.3776888847351074,
0165,27,7,616.6666666666667,33.333333333333336,stimulus_1,0.029571315821863176,33.333333333333336,stimulus_1,0.7187259197235107,2,0.618441104888916,
0165,28,7,700.0,33.333333333333336,stimulus_1,0.025598111565510118,33.333333333333336,stimulus_0,1.0688190460205078,2,1.0391631126403809,
0165,29,7,650.0,33.333333333333336,stimulus_0,0.036423040728009004,33.333333333333336,stimulus_0,0.8534200191497803,2,0.6738100051879883,
0165,30,7,550.0,33.333333333333336,stimulus_0,0.03286405614149229,33.333333333333336,stimulus_0,1.5362370014190674,2,0.5447959899902344,
0165,31,7,516.6666666666667,33.333333333333336,stimulus_1,0.029225013330244576,33.333333333333336,stimulus_1,0.9179480075836182,2,0.32193899154663086,
0165,32,7,716.6666666666667,33.333333333333336,stimulus_1,0.025831698851682294,33.333333333333336,stimulus_1,4.028486967086792,1,0.3022019863128662,
0165,33,7,541.6666666666667,33.333333333333336,stimulus_1,0.022630573026801437,33.333333333333336,stimulus_0,3.6529109477996826,1,0.23957395553588867,
0165,34,7,633.3333333333334,33.333333333333336,stimulus_0,0.03125417732904512,33.333333333333336,stimulus_0,1.4879100322723389,2,0.2766239643096924,
0165,35,7,616.6666666666667,33.333333333333336,stimulus_0,0.02810459606032434,33.333333333333336,stimulus_0,0.9859380722045898,2,0.22765588760375977,
0165,36,7,741.6666666666667,33.333333333333336,stimulus_1,0.025165429455988986,33.333333333333336,stimulus_1,5.368207931518555,1,0.47289013862609863,
0165,37,7,566.6666666666667,33.333333333333336,stimulus_1,0.02236247903851729,33.333333333333336,stimulus_1,2.774678945541382,1,0.24570703506469727,
0165,38,7,558.3333333333334,33.333333333333336,stimulus_0,0.01944683385994983,33.333333333333336,stimulus_0,5.143910884857178,1,2.3917958736419678,
0165,39,7,716.6666666666667,33.333333333333336,stimulus_0,0.01669639336457851,33.333333333333336,stimulus_1,3.145066022872925,1,0.8821840286254883,
0165,0,8,500.00000000000006,33.333333333333336,stimulus_1,0.4,33.333333333333336,stimulus_1,1.1366980075836182,4,0.3417940139770508,
0165,1,8,625.0,33.333333333333336,stimulus_0,0.2509879745459487,33.333333333333336,stimulus_0,0.5689849853515625,4,0.32957887649536133,
0165,2,8,575.0,33.333333333333336,stimulus_0,0.15302949805965513,33.333333333333336,stimulus_0,1.307616949081421,4,0.3776240348815918,
0165,3,8,641.6666666666667,33.333333333333336,stimulus_1,0.07447047493079645,33.333333333333336,stimulus_1,0.6377880573272705,4,0.34577393531799316,
0165,4,8,691.6666666666667,33.333333333333336,stimulus_0,0.01,33.333333333333336,stimulus_0,1.8088421821594238,3,0.3147139549255371,
0165,5,8,500.00000000000006,33.333333333333336,stimulus_1,0.01,33.333333333333336,stimulus_0,2.459742784500122,2,1.0039620399475098,
0165,6,8,500.00000000000006,33.333333333333336,stimulus_1,0.07052923220481583,33.333333333333336,stimulus_1,0.795098066329956,3,0.3622598648071289,
0165,7,8,525.0,33.333333333333336,stimulus_0,0.04657433209187717,33.333333333333336,stimulus_0,2.4386940002441406,3,0.49710917472839355,
0165,8,8,750.0,33.333333333333336,stimulus_0,0.02673196139095757,33.333333333333336,stimulus_1,1.6835980415344238,2,0.6454658508300781,
0165,9,8,541.6666666666667,33.333333333333336,stimulus_1,0.07164077160331156,33.333333333333336,stimulus_1,0.8210170269012451,3,0.2875080108642578,
0165,10,8,583.3333333333334,33.333333333333336,stimulus_1,0.05739514180059857,33.333333333333336,stimulus_0,4.542838096618652,2,0.6985130310058594,
0165,11,8,683.3333333333334,33.333333333333336,stimulus_0,0.09025937516984678,33.333333333333336,stimulus_0,0.9073629379272461,2,0.3825700283050537,
0165,12,8,641.6666666666667,33.333333333333336,stimulus_0,0.07914106228932183,33.333333333333336,stimulus_0,0.7598018646240234,2,1.5567350387573242,
0165,13,8,516.6666666666667,33.333333333333336,stimulus_1,0.06927117048586573,33.333333333333336,stimulus_1,0.7197329998016357,3,0.40329694747924805,
0165,14,8,625.0,33.333333333333336,stimulus_1,0.06032141073678654,33.333333333333336,stimulus_1,0.8522119522094727,3,0.203355073928833,
0165,15,8,616.6666666666667,33.333333333333336,stimulus_0,0.05207180468237843,33.333333333333336,stimulus_0,0.7865839004516602,3,0.49847888946533203,
0165,16,8,533.3333333333334,33.333333333333336,stimulus_0,0.0443406679430326,33.333333333333336,stimulus_0,0.7673101425170898,2,2.776081085205078,
0165,17,8,583.3333333333334,33.333333333333336,stimulus_0,0.03701482059337924,33.333333333333336,stimulus_0,0.7791368961334229,3,0.3393549919128418,
0165,18,8,608.3333333333334,33.333333333333336,stimulus_1,0.030465198725035836,33.333333333333336,stimulus_0,2.4917609691619873,2,0.41696691513061523,
0165,19,8,675.0,33.333333333333336,stimulus_1,0.04732860366475905,33.333333333333336,stimulus_0,1.003154993057251,2,0.36535191535949707,
0165,20,8,658.3333333333334,33.333333333333336,stimulus_1,0.06337536257337073,33.333333333333336,stimulus_1,0.6435549259185791,3,0.3070800304412842,
0165,21,8,716.6666666666667,33.333333333333336,stimulus_0,0.05772833679683986,33.333333333333336,stimulus_0,1.1013758182525635,3,0.3845500946044922,
0165,22,8,633.3333333333334,33.333333333333336,stimulus_0,0.05263091156107552,33.333333333333336,stimulus_0,0.7847239971160889,3,0.3805539608001709,
0165,23,8,658.3333333333334,33.333333333333336,stimulus_1,0.0475973505594976,33.333333333333336,stimulus_1,0.6731729507446289,3,0.41467905044555664,
0165,24,8,641.6666666666667,33.333333333333336,stimulus_0,0.04300867685318893,33.333333333333336,stimulus_0,0.8556280136108398,3,0.26073789596557617,
0165,25,8,616.6666666666667,33.333333333333336,stimulus_1,0.038419190038090356,33.333333333333336,stimulus_1,1.2517318725585938,3,0.9538769721984863,
0165,26,8,683.3333333333334,33.333333333333336,stimulus_0,0.034204130801338606,33.333333333333336,stimulus_0,1.6303520202636719,2,0.6234581470489502,
0165,27,8,650.0,33.333333333333336,stimulus_1,0.029961863282463252,33.333333333333336,stimulus_1,0.9565539360046387,3,1.248844861984253,
0165,28,8,533.3333333333334,33.333333333333336,stimulus_1,0.026008395218528824,33.333333333333336,stimulus_1,1.4085819721221924,2,0.2434070110321045,
0165,29,8,608.3333333333334,33.333333333333336,stimulus_1,0.022310651058250475,33.333333333333336,stimulus_1,2.097353935241699,2,0.2001819610595703,
0165,30,8,733.3333333333334,33.333333333333336,stimulus_0,0.018530920260748762,33.333333333333336,stimulus_0,0.8978021144866943,2,0.5364019870758057,
0165,31,8,708.3333333333334,33.333333333333336,stimulus_0,0.015009205750874999,33.333333333333336,stimulus_0,2.097378969192505,1,0.3338139057159424,
0165,32,8,566.6666666666667,33.333333333333336,stimulus_1,0.011667092722545236,33.333333333333336,stimulus_1,3.5568699836730957,1,0.9097659587860107,
0165,33,8,591.6666666666667,33.333333333333336,stimulus_0,0.01,33.333333333333336,stimulus_0,3.3324198722839355,1,0.7951290607452393,
0165,34,8,500.00000000000006,33.333333333333336,stimulus_0,0.01,33.333333333333336,stimulus_0,1.1112561225891113,2,0.3990659713745117,
0165,35,8,516.6666666666667,33.333333333333336,stimulus_1,0.01,33.333333333333336,stimulus_0,2.4447989463806152,2,0.5580158233642578,
0165,36,8,725.0,33.333333333333336,stimulus_1,0.010951003659391445,33.333333333333336,stimulus_0,2.12467885017395,2,3.45215106010437,
0165,37,8,625.0,33.333333333333336,stimulus_1,0.018951517001759288,33.333333333333336,stimulus_1,1.453528881072998,2,0.440532922744751,
0165,38,8,516.6666666666667,33.333333333333336,stimulus_0,0.016148257344312245,33.333333333333336,stimulus_0,1.5414319038391113,2,0.3638899326324463,
0165,39,8,725.0,33.333333333333336,stimulus_0,0.013485480037746023,33.333333333333336,stimulus_1,1.6274189949035645,1,0.2645268440246582,
0165,0,9,750.0,33.333333333333336,stimulus_0,0.4,33.333333333333336,stimulus_0,1.218297004699707,4,0.8340010643005371,
0165,1,9,508.33333333333337,33.333333333333336,stimulus_1,0.2509879745459487,33.333333333333336,stimulus_1,0.6670620441436768,4,0.8511660099029541,
0165,2,9,516.6666666666667,33.333333333333336,stimulus_0,0.15302949805965513,33.333333333333336,stimulus_0,0.6043097972869873,4,0.32358694076538086,
0165,3,9,525.0,33.333333333333336,stimulus_1,0.07447047493079645,33.333333333333336,stimulus_0,1.4068820476531982,3,0.40497708320617676,
0165,4,9,583.3333333333334,33.333333333333336,stimulus_0,0.19116438799299137,33.333333333333336,stimulus_0,0.621427059173584,3,0.4880959987640381,
0165,5,9,525.0,33.333333333333336,stimulus_1,0.15879956701154668,33.333333333333336,stimulus_1,0.7495889663696289,4,0.2768399715423584,
0165,6,9,616.6666666666667,33.333333333333336,stimulus_0,0.1332385462073028,33.333333333333336,stimulus_0,1.6431398391723633,4,0.3045220375061035,
0165,7,9,658.3333333333334,33.333333333333336,stimulus_1,0.11113684036651211,33.333333333333336,stimulus_1,0.6975059509277344,4,0.3413681983947754,
0165,8,9,633.3333333333334,33.333333333333336,stimulus_0,0.09207196720633948,33.333333333333336,stimulus_0,0.766754150390625,4,0.2597160339355469,
0165,9,9,741.6666666666667,33.333333333333336,stimulus_0,0.07481368503589986,33.333333333333336,stimulus_0,0.7443089485168457,4,0.31511783599853516,
0165,10,9,650.0,33.333333333333336,stimulus_1,0.058608724895684416,33.333333333333336,stimulus_1,1.0484600067138672,4,0.22585701942443848,
0165,11,9,716.6666666666667,33.333333333333336,stimulus_1,0.04390867517088631,33.333333333333336,stimulus_1,0.9623579978942871,4,0.19374585151672363,
0165,12,9,625.0,33.333333333333336,stimulus_0,0.02921447825433182,33.333333333333336,stimulus_0,0.9435250759124756,3,0.8267560005187988,
0165,13,9,725.0,33.333333333333336,stimulus_0,0.015078043790101248,33.333333333333336,stimulus_0,1.721040964126587,2,0.4989180564880371,
0165,14,9,741.6666666666667,33.333333333333336,stimulus_1,0.01,33.333333333333336,stimulus_1,3.143527030944824,2,0.4034569263458252,
0165,15,9,533.3333333333334,33.333333333333336,stimulus_1,0.01,33.333333333333336,stimulus_1,1.8733408451080322,1,0.20268511772155762,
0165,16,9,541.6666666666667,33.333333333333336,stimulus_1,0.01,33.333333333333336,stimulus_0,1.2779438495635986,1,0.22104597091674805,
0165,17,9,675.0,33.333333333333336,stimulus_0,0.01772669185683401,33.333333333333336,stimulus_0,1.1673939228057861,2,0.39650607109069824,
0165,18,9,541.6666666666667,33.333333333333336,stimulus_1,0.01,33.333333333333336,stimulus_1,2.8515350818634033,1,0.21929478645324707,
0165,19,9,500.00000000000006,33.333333333333336,stimulus_0,0.01,33.333333333333336,stimulus_0,1.7296228408813477,1,0.22867608070373535,
0165,20,9,708.3333333333334,33.333333333333336,stimulus_1,0.01,33.333333333333336,stimulus_0,1.7313380241394043,1,0.3213639259338379,
0165,21,9,566.6666666666667,33.333333333333336,stimulus_0,0.01618596521200466,33.333333333333336,stimulus_1,1.4759788513183594,1,0.374006986618042,
0165,22,9,608.3333333333334,33.333333333333336,stimulus_1,0.03262040277795558,33.333333333333336,stimulus_1,2.6180529594421387,1,0.2672238349914551,
0165,23,9,608.3333333333334,33.333333333333336,stimulus_0,0.02711543858154658,33.333333333333336,stimulus_0,2.3712570667266846,2,2.077543020248413,
0165,24,9,633.3333333333334,33.333333333333336,stimulus_1,0.022076692228198358,33.333333333333336,stimulus_0,1.6618599891662598,1,0.26953816413879395,
0165,25,9,641.6666666666667,33.333333333333336,stimulus_1,0.0352235478072776,33.333333333333336,stimulus_1,1.8661699295043945,2,1.4139540195465088,
0165,26,9,641.6666666666667,33.333333333333336,stimulus_0,0.03075888744747951,33.333333333333336,stimulus_0,1.4456369876861572,1,0.7381210327148438,
0165,27,9,616.6666666666667,33.333333333333336,stimulus_0,0.026306137750657876,33.333333333333336,stimulus_0,1.9639360904693604,1,0.3206300735473633,
0165,28,9,675.0,33.333333333333336,stimulus_0,0.02217770644597583,33.333333333333336,stimulus_1,1.6709811687469482,1,0.21724200248718262,
0165,29,9,600.0,33.333333333333336,stimulus_1,0.03314435593004178,33.333333333333336,stimulus_0,1.5805950164794922,1,1.8476829528808594,
0165,30,9,508.33333333333337,33.333333333333336,stimulus_0,0.043494856945710036,33.333333333333336,stimulus_0,1.7953901290893555,2,0.3495159149169922,
0165,31,9,533.3333333333334,33.333333333333336,stimulus_1,0.039663934348791174,33.333333333333336,stimulus_1,2.298971176147461,1,0.22938108444213867,
0165,32,9,708.3333333333334,33.333333333333336,stimulus_1,0.03609682479559023,33.333333333333336,stimulus_1,2.196857213973999,2,1.5253870487213135,
0165,33,9,516.6666666666667,33.333333333333336,stimulus_0,0.032749854617364516,33.333333333333336,stimulus_0,1.6184909343719482,2,0.75478196144104,
0165,34,9,650.0,33.333333333333336,stimulus_0,0.029312196372421717,33.333333333333336,stimulus_1,3.388822078704834,2,0.32617712020874023,
0165,35,9,741.6666666666667,33.333333333333336,stimulus_1,0.03821675708821415,33.333333333333336,stimulus_0,2.275568962097168,1,0.305452823638916,
0165,36,9,558.3333333333334,33.333333333333336,stimulus_1,0.04689542533535512,33.333333333333336,stimulus_1,2.0891671180725098,2,0.27271604537963867,
0165,37,9,508.33333333333337,33.333333333333336,stimulus_0,0.043959223095989486,33.333333333333336,stimulus_0,0.9596610069274902,2,1.3555800914764404,
0165,38,9,566.6666666666667,33.333333333333336,stimulus_1,0.0409466522638986,33.333333333333336,stimulus_1,2.9767589569091797,2,2.5656769275665283,
0165,39,9,533.3333333333334,33.333333333333336,stimulus_0,0.03805414380393274,33.333333333333336,stimulus_0,1.773987054824829,2,0.4098851680755615,
