subject,trial_number,staircase_number,fixation_duration_ms,target_duration_ms,target_type,target_contrast,mask_duration_ms,objective_response,objective_response_time_ms,subjective_response,subjective_response_time_ms
0167,0,0,550.0,33.333333333333336,stimulus_0,0.4,33.333333333333336,stimulus_1,1.8120880126953125,1,1.9555628299713135,
0167,1,0,500.00000000000006,33.333333333333336,stimulus_1,0.6431098143584852,33.333333333333336,stimulus_1,1.6962299346923828,1,2.04825496673584,
0167,2,0,683.3333333333334,33.333333333333336,stimulus_0,0.5620020274253117,33.333333333333336,stimulus_1,0.9505419731140137,1,1.9568159580230713,
0167,3,0,533.3333333333334,33.333333333333336,stimulus_1,0.6689076648463054,33.333333333333336,stimulus_0,0.7014720439910889,1,0.5272529125213623,
0167,4,0,550.0,33.333333333333336,stimulus_0,0.759927801907736,33.333333333333336,stimulus_1,3.1292731761932373,1,0.764092206954956,
0167,5,0,575.0,33.333333333333336,stimulus_0,0.8443657026826292,33.333333333333336,stimulus_0,1.1265869140625,2,0.922745943069458,
0167,6,0,616.6666666666667,33.333333333333336,stimulus_1,0.8115672249510711,33.333333333333336,stimulus_1,2.2352559566497803,2,0.5719101428985596,
0167,7,0,516.6666666666667,33.333333333333336,stimulus_1,0.7886196982140634,33.333333333333336,stimulus_1,1.357511043548584,2,0.5125699043273926,
0167,8,0,591.6666666666667,33.333333333333336,stimulus_1,0.7708232606775844,33.333333333333336,stimulus_1,1.5005040168762207,2,1.1325838565826416,
0167,9,0,725.0,33.333333333333336,stimulus_0,0.755750157590994,33.333333333333336,stimulus_0,2.3745369911193848,2,1.0107460021972656,
0167,10,0,550.0,33.333333333333336,stimulus_1,0.7430850016008737,33.333333333333336,stimulus_1,1.1472399234771729,2,0.7606749534606934,
0167,11,0,591.6666666666667,33.333333333333336,stimulus_0,0.7312771704565275,33.333333333333336,stimulus_0,1.422611951828003,2,0.9190330505371094,
0167,12,0,550.0,33.333333333333336,stimulus_0,0.7206832565064714,33.333333333333336,stimulus_0,0.9491620063781738,2,0.837670087814331,
0167,13,0,633.3333333333334,33.333333333333336,stimulus_1,0.7109622359591583,33.333333333333336,stimulus_1,1.203852891921997,2,0.8640000820159912,
0167,14,0,675.0,33.333333333333336,stimulus_0,0.7018726197786127,33.333333333333336,stimulus_0,1.4595379829406738,3,0.5722920894622803,
0167,15,0,575.0,33.333333333333336,stimulus_1,0.6932361734361013,33.333333333333336,stimulus_1,1.1375088691711426,3,0.5242609977722168,
0167,16,0,600.0,33.333333333333336,stimulus_1,0.6849188795065919,33.333333333333336,stimulus_1,1.284916877746582,3,0.3883531093597412,
0167,17,0,741.6666666666667,33.333333333333336,stimulus_0,0.6768187518108935,33.333333333333336,stimulus_0,1.0012481212615967,3,1.9914300441741943,
0167,18,0,741.6666666666667,33.333333333333336,stimulus_0,0.6693781089311057,33.333333333333336,stimulus_0,0.7350170612335205,3,0.4741370677947998,
0167,19,0,700.0,33.333333333333336,stimulus_1,0.6619623931806167,33.333333333333336,stimulus_1,2.2238919734954834,3,0.7013089656829834,
0167,20,0,541.6666666666667,33.333333333333336,stimulus_0,0.6544856071151881,33.333333333333336,stimulus_0,0.9233100414276123,3,0.5950050354003906,
0167,21,0,516.6666666666667,33.333333333333336,stimulus_1,0.6469125288154547,33.333333333333336,stimulus_1,1.0904479026794434,3,0.5005738735198975,
0167,22,0,625.0,33.333333333333336,stimulus_0,0.6397259008091252,33.333333333333336,stimulus_0,1.091277837753296,3,0.4769291877746582,
0167,23,0,750.0,33.333333333333336,stimulus_1,0.6322685079338324,33.333333333333336,stimulus_1,1.5896308422088623,3,1.4652879238128662,
0167,24,0,741.6666666666667,33.333333333333336,stimulus_1,0.6245227277333891,33.333333333333336,stimulus_1,1.9951629638671875,3,2.182874917984009,
0167,25,0,658.3333333333334,33.333333333333336,stimulus_0,0.6164575450977446,33.333333333333336,stimulus_0,1.3299999237060547,3,1.5918409824371338,
0167,26,0,600.0,33.333333333333336,stimulus_0,0.6086174103163203,33.333333333333336,stimulus_0,0.8067929744720459,3,0.43718600273132324,
0167,27,0,741.6666666666667,33.333333333333336,stimulus_1,0.6004104187351196,33.333333333333336,stimulus_1,0.8547282218933105,3,0.5291540622711182,
0167,28,0,516.6666666666667,33.333333333333336,stimulus_0,0.5917897341713563,33.333333333333336,stimulus_0,0.7911419868469238,3,0.4029099941253662,
0167,29,0,591.6666666666667,33.333333333333336,stimulus_1,0.5828325503613019,33.333333333333336,stimulus_1,1.121000051498413,3,1.4877288341522217,
0167,30,0,750.0,33.333333333333336,stimulus_0,0.5735806194172235,33.333333333333336,stimulus_0,1.0569369792938232,3,0.5308539867401123,
0167,31,0,600.0,33.333333333333336,stimulus_1,0.5640796007526653,33.333333333333336,stimulus_1,1.7976109981536865,3,3.2073099613189697,
0167,32,0,566.6666666666667,33.333333333333336,stimulus_1,0.5543590253537134,33.333333333333336,stimulus_1,0.9077601432800293,3,0.39095115661621094,
0167,33,0,541.6666666666667,33.333333333333336,stimulus_0,0.5444157069339621,33.333333333333336,stimulus_0,0.8561851978302002,3,1.4376370906829834,
0167,34,0,608.3333333333334,33.333333333333336,stimulus_1,0.5342108701846443,33.333333333333336,stimulus_1,1.7955398559570312,3,0.7822070121765137,
0167,35,0,591.6666666666667,33.333333333333336,stimulus_0,0.5236839507006472,33.333333333333336,stimulus_0,0.9140851497650146,3,0.39419007301330566,
0167,36,0,608.3333333333334,33.333333333333336,stimulus_1,0.5127804174182791,33.333333333333336,stimulus_1,3.2370519638061523,3,0.5314860343933105,
0167,37,0,683.3333333333334,33.333333333333336,stimulus_1,0.5014849175551761,33.333333333333336,stimulus_1,1.033926010131836,3,0.4288210868835449,
0167,38,0,683.3333333333334,33.333333333333336,stimulus_0,0.48983653282541484,33.333333333333336,stimulus_0,0.7581539154052734,3,0.3914608955383301,
0167,39,0,716.6666666666667,33.333333333333336,stimulus_0,0.47789490403398216,33.333333333333336,stimulus_0,1.6433911323547363,3,1.2802860736846924,
0167,0,1,625.0,33.333333333333336,stimulus_0,0.4,33.333333333333336,stimulus_0,0.7587499618530273,3,1.109787940979004,
0167,1,1,625.0,33.333333333333336,stimulus_1,0.2509879745459487,33.333333333333336,stimulus_1,1.063291072845459,3,1.6201140880584717,
0167,2,1,591.6666666666667,33.333333333333336,stimulus_1,0.15302949805965513,33.333333333333336,stimulus_1,2.3364901542663574,1,0.43410205841064453,
0167,3,1,750.0,33.333333333333336,stimulus_0,0.07447047493079645,33.333333333333336,stimulus_0,0.9247050285339355,3,1.7188990116119385,
0167,4,1,625.0,33.333333333333336,stimulus_0,0.01,33.333333333333336,stimulus_1,1.3568859100341797,1,0.5880599021911621,
0167,5,1,700.0,33.333333333333336,stimulus_1,0.1153395389209863,33.333333333333336,stimulus_1,1.0235490798950195,3,0.5860888957977295,
0167,6,1,525.0,33.333333333333336,stimulus_1,0.08765518823841861,33.333333333333336,stimulus_1,2.192685127258301,2,0.4750030040740967,
0167,7,1,641.6666666666667,33.333333333333336,stimulus_0,0.0645285831773651,33.333333333333336,stimulus_0,1.5365300178527832,2,0.7260010242462158,
0167,8,1,566.6666666666667,33.333333333333336,stimulus_0,0.04384644936456128,33.333333333333336,stimulus_0,2.1912219524383545,2,0.5098898410797119,
0167,9,1,683.3333333333334,33.333333333333336,stimulus_1,0.02561117919315764,33.333333333333336,stimulus_1,1.4140288829803467,1,0.9007940292358398,
0167,10,1,691.6666666666667,33.333333333333336,stimulus_1,0.01,33.333333333333336,stimulus_1,0.9339349269866943,1,0.4847738742828369,
0167,11,1,516.6666666666667,33.333333333333336,stimulus_0,0.01,33.333333333333336,stimulus_0,1.3107130527496338,1,0.3724830150604248,
0167,12,1,716.6666666666667,33.333333333333336,stimulus_0,0.01,33.333333333333336,stimulus_0,2.346083164215088,1,1.4389228820800781,
0167,13,1,650.0,33.333333333333336,stimulus_0,0.01,33.333333333333336,stimulus_1,4.264214038848877,1,1.6836419105529785,
0167,14,1,508.33333333333337,33.333333333333336,stimulus_1,0.010662478168050826,33.333333333333336,stimulus_1,3.328507900238037,1,1.5456101894378662,
0167,15,1,616.6666666666667,33.333333333333336,stimulus_1,0.01,33.333333333333336,stimulus_1,2.611891984939575,1,2.1447110176086426,
0167,16,1,500.00000000000006,33.333333333333336,stimulus_1,0.01,33.333333333333336,stimulus_0,2.3246428966522217,1,0.4116170406341553,
0167,17,1,625.0,33.333333333333336,stimulus_0,0.016982471803708266,33.333333333333336,stimulus_1,2.320223093032837,1,2.0706470012664795,
0167,18,1,700.0,33.333333333333336,stimulus_1,0.035842883519231705,33.333333333333336,stimulus_0,2.7020609378814697,1,0.42133593559265137,
0167,19,1,700.0,33.333333333333336,stimulus_0,0.05352991109294608,33.333333333333336,stimulus_0,2.1406660079956055,2,0.5234010219573975,
0167,20,1,658.3333333333334,33.333333333333336,stimulus_1,0.04736034386687327,33.333333333333336,stimulus_1,1.4211561679840088,2,2.3908979892730713,
0167,21,1,575.0,33.333333333333336,stimulus_0,0.04182809852335467,33.333333333333336,stimulus_0,1.055055856704712,2,0.5631699562072754,
0167,22,1,658.3333333333334,33.333333333333336,stimulus_1,0.036429522420110716,33.333333333333336,stimulus_1,1.1744019985198975,2,0.4328300952911377,
0167,23,1,741.6666666666667,33.333333333333336,stimulus_0,0.03151711119299633,33.333333333333336,stimulus_0,2.1421360969543457,2,0.41144680976867676,
0167,24,1,583.3333333333334,33.333333333333336,stimulus_0,0.02666279741722094,33.333333333333336,stimulus_0,1.117691993713379,1,0.4171569347381592,
0167,25,1,583.3333333333334,33.333333333333336,stimulus_0,0.02221119022993656,33.333333333333336,stimulus_1,2.743124008178711,1,1.1091861724853516,
0167,26,1,500.00000000000006,33.333333333333336,stimulus_1,0.03392088024776696,33.333333333333336,stimulus_1,1.9802618026733398,1,0.6908931732177734,
0167,27,1,525.0,33.333333333333336,stimulus_1,0.029612261358908876,33.333333333333336,stimulus_1,1.0344231128692627,2,0.9493029117584229,
0167,28,1,558.3333333333334,33.333333333333336,stimulus_1,0.025633559704758835,33.333333333333336,stimulus_0,1.70113205909729,1,0.4030628204345703,
0167,29,1,691.6666666666667,33.333333333333336,stimulus_0,0.03645947610248884,33.333333333333336,stimulus_0,0.9023540019989014,2,0.9386148452758789,
0167,30,1,591.6666666666667,33.333333333333336,stimulus_0,0.032869179292693895,33.333333333333336,stimulus_0,1.011314868927002,2,0.5772387981414795,
0167,31,1,658.3333333333334,33.333333333333336,stimulus_1,0.02921012457663419,33.333333333333336,stimulus_1,1.0227689743041992,2,0.7923500537872314,
0167,32,1,566.6666666666667,33.333333333333336,stimulus_1,0.02581324603957813,33.333333333333336,stimulus_1,2.251904010772705,2,0.7867648601531982,
0167,33,1,733.3333333333334,33.333333333333336,stimulus_0,0.022614564083631106,33.333333333333336,stimulus_0,1.0599818229675293,1,0.356701135635376,
0167,34,1,616.6666666666667,33.333333333333336,stimulus_1,0.019322089016778232,33.333333333333336,stimulus_0,1.7110681533813477,2,0.6197910308837891,
0167,35,1,525.0,33.333333333333336,stimulus_0,0.027863900993627566,33.333333333333336,stimulus_1,4.4711620807647705,1,0.7600491046905518,
0167,36,1,658.3333333333334,33.333333333333336,stimulus_0,0.03624941139146981,33.333333333333336,stimulus_1,1.0261571407318115,1,0.4253091812133789,
0167,37,1,716.6666666666667,33.333333333333336,stimulus_1,0.04452218693275578,33.333333333333336,stimulus_1,1.1021130084991455,2,0.7753250598907471,
0167,38,1,500.00000000000006,33.333333333333336,stimulus_1,0.04159233763295467,33.333333333333336,stimulus_1,1.4105730056762695,2,0.5430829524993896,
0167,39,1,541.6666666666667,33.333333333333336,stimulus_0,0.038760368240005394,33.333333333333336,stimulus_1,1.8656399250030518,2,3.699552059173584,
0167,0,2,733.3333333333334,33.333333333333336,stimulus_0,0.4,33.333333333333336,stimulus_0,2.091710090637207,3,1.0017280578613281,
0167,1,2,516.6666666666667,33.333333333333336,stimulus_0,0.2509879745459487,33.333333333333336,stimulus_0,1.157829999923706,3,0.6990139484405518,
0167,2,2,608.3333333333334,33.333333333333336,stimulus_1,0.15302949805965513,33.333333333333336,stimulus_1,1.004486083984375,3,0.4648919105529785,
0167,3,2,683.3333333333334,33.333333333333336,stimulus_1,0.07447047493079645,33.333333333333336,stimulus_1,1.963007926940918,2,0.6774921417236328,
0167,4,2,558.3333333333334,33.333333333333336,stimulus_1,0.01,33.333333333333336,stimulus_1,2.3721320629119873,1,0.4913167953491211,
0167,5,2,608.3333333333334,33.333333333333336,stimulus_0,0.01,33.333333333333336,stimulus_1,0.9452462196350098,1,0.4647538661956787,
0167,6,2,725.0,33.333333333333336,stimulus_0,0.07052923220481583,33.333333333333336,stimulus_0,0.7372879981994629,2,1.3722138404846191,
0167,7,2,525.0,33.333333333333336,stimulus_1,0.04657433209187717,33.333333333333336,stimulus_1,1.0362670421600342,2,0.47611403465270996,
0167,8,2,616.6666666666667,33.333333333333336,stimulus_0,0.02673196139095757,33.333333333333336,stimulus_1,1.055325984954834,1,0.3444678783416748,
0167,9,2,608.3333333333334,33.333333333333336,stimulus_0,0.07164077160331156,33.333333333333336,stimulus_0,0.6873841285705566,2,0.8613219261169434,
0167,10,2,733.3333333333334,33.333333333333336,stimulus_1,0.05739514180059857,33.333333333333336,stimulus_1,2.0515501499176025,2,0.8784840106964111,
0167,11,2,541.6666666666667,33.333333333333336,stimulus_1,0.045188024443374164,33.333333333333336,stimulus_1,1.15267014503479,3,0.6848328113555908,
0167,12,2,591.6666666666667,33.333333333333336,stimulus_1,0.03439185683395496,33.333333333333336,stimulus_1,1.4217078685760498,3,0.4071319103240967,
0167,13,2,625.0,33.333333333333336,stimulus_0,0.023970080562048635,33.333333333333336,stimulus_0,0.93398118019104,3,0.47190403938293457,
0167,14,2,566.6666666666667,33.333333333333336,stimulus_0,0.014380113975873132,33.333333333333336,stimulus_1,0.9903991222381592,1,0.4852719306945801,
0167,15,2,666.6666666666667,33.333333333333336,stimulus_1,0.03667163969935927,33.333333333333336,stimulus_1,1.101140022277832,1,1.5643599033355713,
0167,16,2,633.3333333333334,33.333333333333336,stimulus_0,0.02910535482275345,33.333333333333336,stimulus_1,1.4024670124053955,1,0.6384849548339844,
0167,17,2,725.0,33.333333333333336,stimulus_1,0.048454535925957,33.333333333333336,stimulus_1,0.9469931125640869,2,0.7615861892700195,
0167,18,2,666.6666666666667,33.333333333333336,stimulus_0,0.04186799726903606,33.333333333333336,stimulus_0,1.502357006072998,2,1.6735541820526123,
0167,19,2,550.0,33.333333333333336,stimulus_1,0.03555340880526359,33.333333333333336,stimulus_1,0.8765408992767334,2,0.959752082824707,
0167,20,2,641.6666666666667,33.333333333333336,stimulus_1,0.029848621363783634,33.333333333333336,stimulus_1,0.994575023651123,1,0.8382489681243896,
0167,21,2,533.3333333333334,33.333333333333336,stimulus_1,0.024336057295800684,33.333333333333336,stimulus_1,1.59633207321167,1,0.5957000255584717,
0167,22,2,500.00000000000006,33.333333333333336,stimulus_0,0.018917202919846776,33.333333333333336,stimulus_0,1.9514517784118652,1,1.0496559143066406,
0167,23,2,508.33333333333337,33.333333333333336,stimulus_0,0.01397202112468493,33.333333333333336,stimulus_0,0.7498898506164551,1,0.3993518352508545,
0167,24,2,725.0,33.333333333333336,stimulus_0,0.01,33.333333333333336,stimulus_1,4.3652260303497314,1,2.5947399139404297,
0167,25,2,725.0,33.333333333333336,stimulus_1,0.02157938516593083,33.333333333333336,stimulus_1,0.9716181755065918,1,0.41831016540527344,
0167,26,2,716.6666666666667,33.333333333333336,stimulus_0,0.01719175281548785,33.333333333333336,stimulus_0,0.6766879558563232,1,0.5191590785980225,
0167,27,2,700.0,33.333333333333336,stimulus_1,0.013147597737366346,33.333333333333336,stimulus_0,1.2920548915863037,1,0.41475486755371094,
0167,28,2,533.3333333333334,33.333333333333336,stimulus_0,0.023768443903403713,33.333333333333336,stimulus_0,1.9530279636383057,1,0.4351029396057129,
0167,29,2,558.3333333333334,33.333333333333336,stimulus_1,0.019839173529203336,33.333333333333336,stimulus_0,1.5032658576965332,1,1.128544807434082,
0167,30,2,658.3333333333334,33.333333333333336,stimulus_1,0.029876459592122595,33.333333333333336,stimulus_1,1.2869248390197754,2,0.6956319808959961,
0167,31,2,558.3333333333334,33.333333333333336,stimulus_0,0.02634948789612812,33.333333333333336,stimulus_1,5.7357800006866455,1,1.3998939990997314,
0167,32,2,725.0,33.333333333333336,stimulus_1,0.035939161473600545,33.333333333333336,stimulus_1,1.3624341487884521,2,0.5062720775604248,
0167,33,2,650.0,33.333333333333336,stimulus_0,0.032745873066515996,33.333333333333336,stimulus_0,2.5551440715789795,1,0.5352449417114258,
0167,34,2,725.0,33.333333333333336,stimulus_0,0.02946510489155585,33.333333333333336,stimulus_0,0.7822380065917969,2,0.42415499687194824,
0167,35,2,558.3333333333334,33.333333333333336,stimulus_1,0.02640350589835172,33.333333333333336,stimulus_1,0.9704680442810059,2,0.8537189960479736,
0167,36,2,541.6666666666667,33.333333333333336,stimulus_0,0.023519101002598686,33.333333333333336,stimulus_0,1.453646183013916,2,0.579974889755249,
0167,37,2,616.6666666666667,33.333333333333336,stimulus_1,0.020546469449178484,33.333333333333336,stimulus_0,5.159724950790405,1,0.7064511775970459,
0167,38,2,733.3333333333334,33.333333333333336,stimulus_0,0.028201209019084572,33.333333333333336,stimulus_0,0.692270040512085,2,0.5828769207000732,
0167,39,2,633.3333333333334,33.333333333333336,stimulus_1,0.025524690354116197,33.333333333333336,stimulus_1,0.9644069671630859,2,0.5012519359588623,
0167,0,3,666.6666666666667,33.333333333333336,stimulus_0,0.4,33.333333333333336,stimulus_0,1.9123389720916748,3,0.6844730377197266,
0167,1,3,525.0,33.333333333333336,stimulus_1,0.2509879745459487,33.333333333333336,stimulus_1,1.7100830078125,3,0.9037578105926514,
0167,2,3,591.6666666666667,33.333333333333336,stimulus_1,0.15302949805965513,33.333333333333336,stimulus_1,1.4199490547180176,3,0.5203559398651123,
0167,3,3,708.3333333333334,33.333333333333336,stimulus_0,0.07447047493079645,33.333333333333336,stimulus_0,1.3393089771270752,3,1.005035161972046,
0167,4,3,741.6666666666667,33.333333333333336,stimulus_1,0.01,33.333333333333336,stimulus_1,1.3932278156280518,1,0.38564586639404297,
0167,5,3,591.6666666666667,33.333333333333336,stimulus_0,0.01,33.333333333333336,stimulus_1,1.0854709148406982,1,0.48831987380981445,
0167,6,3,600.0,33.333333333333336,stimulus_1,0.07052923220481583,33.333333333333336,stimulus_1,1.05240797996521,2,0.49587082862854004,
0167,7,3,591.6666666666667,33.333333333333336,stimulus_0,0.04657433209187717,33.333333333333336,stimulus_0,1.793956995010376,2,0.49260997772216797,
0167,8,3,733.3333333333334,33.333333333333336,stimulus_0,0.02673196139095757,33.333333333333336,stimulus_0,1.2644901275634766,2,0.930366039276123,
0167,9,3,650.0,33.333333333333336,stimulus_0,0.01,33.333333333333336,stimulus_1,3.2811119556427,1,0.8311519622802734,
0167,10,3,741.6666666666667,33.333333333333336,stimulus_1,0.049418962741122674,33.333333333333336,stimulus_1,3.1784310340881348,3,0.7332191467285156,
0167,11,3,500.00000000000006,33.333333333333336,stimulus_1,0.03689935795734073,33.333333333333336,stimulus_1,1.9863100051879883,3,0.947335958480835,
0167,12,3,541.6666666666667,33.333333333333336,stimulus_0,0.02586733957405085,33.333333333333336,stimulus_1,1.3540351390838623,1,0.37999892234802246,
0167,13,3,750.0,33.333333333333336,stimulus_1,0.053426843740201735,33.333333333333336,stimulus_1,1.2197370529174805,3,0.3034348487854004,
0167,14,3,566.6666666666667,33.333333333333336,stimulus_0,0.044111702384250606,33.333333333333336,stimulus_0,2.0213868618011475,2,0.4199709892272949,
0167,15,3,641.6666666666667,33.333333333333336,stimulus_1,0.03555348961559035,33.333333333333336,stimulus_1,1.3423700332641602,2,0.43701601028442383,
0167,16,3,708.3333333333334,33.333333333333336,stimulus_0,0.02806457288568598,33.333333333333336,stimulus_0,1.4468929767608643,2,0.95554518699646,
0167,17,3,558.3333333333334,33.333333333333336,stimulus_1,0.02100094302494182,33.333333333333336,stimulus_1,1.6078808307647705,2,1.1760249137878418,
0167,18,3,558.3333333333334,33.333333333333336,stimulus_1,0.014248428732975327,33.333333333333336,stimulus_0,3.8392200469970703,2,1.2576792240142822,
0167,19,3,700.0,33.333333333333336,stimulus_0,0.0307336958060615,33.333333333333336,stimulus_1,3.0364599227905273,1,0.5068750381469727,
0167,20,3,575.0,33.333333333333336,stimulus_1,0.04651228071179936,33.333333333333336,stimulus_1,1.125749111175537,2,2.300041913986206,
0167,21,3,683.3333333333334,33.333333333333336,stimulus_0,0.04107811772874853,33.333333333333336,stimulus_1,0.9491860866546631,1,0.3517160415649414,
0167,22,3,541.6666666666667,33.333333333333336,stimulus_0,0.055220934086561035,33.333333333333336,stimulus_0,0.902001142501831,2,0.7241661548614502,
0167,23,3,591.6666666666667,33.333333333333336,stimulus_1,0.05032871147491502,33.333333333333336,stimulus_1,1.1257410049438477,2,1.0859379768371582,
0167,24,3,550.0,33.333333333333336,stimulus_1,0.045562893857268694,33.333333333333336,stimulus_1,0.8592879772186279,2,0.45413684844970703,
0167,25,3,675.0,33.333333333333336,stimulus_0,0.04117087432320471,33.333333333333336,stimulus_0,0.907059907913208,2,0.45029282569885254,
0167,26,3,591.6666666666667,33.333333333333336,stimulus_0,0.0368105374317651,33.333333333333336,stimulus_0,0.6914718151092529,2,1.498094081878662,
0167,27,3,591.6666666666667,33.333333333333336,stimulus_1,0.032797397151224206,33.333333333333336,stimulus_1,1.1244730949401855,2,0.858936071395874,
0167,28,3,650.0,33.333333333333336,stimulus_0,0.028742579346336228,33.333333333333336,stimulus_0,1.0094249248504639,2,0.9483211040496826,
0167,29,3,550.0,33.333333333333336,stimulus_0,0.025000248814946835,33.333333333333336,stimulus_0,0.8533980846405029,2,0.37058210372924805,
0167,30,3,666.6666666666667,33.333333333333336,stimulus_1,0.021473370692726368,33.333333333333336,stimulus_0,0.6981408596038818,1,0.34567713737487793,
0167,31,3,558.3333333333334,33.333333333333336,stimulus_1,0.031006380768870967,33.333333333333336,stimulus_1,2.607713222503662,2,0.6565980911254883,
0167,32,3,733.3333333333334,33.333333333333336,stimulus_0,0.027563027113387206,33.333333333333336,stimulus_0,3.0582308769226074,2,0.9100408554077148,
0167,33,3,733.3333333333334,33.333333333333336,stimulus_0,0.024362736632438042,33.333333333333336,stimulus_1,0.8721930980682373,1,0.3396918773651123,
0167,34,3,591.6666666666667,33.333333333333336,stimulus_1,0.03279869659511947,33.333333333333336,stimulus_1,0.9095549583435059,2,0.6244518756866455,
0167,35,3,650.0,33.333333333333336,stimulus_1,0.02963044251046848,33.333333333333336,stimulus_1,1.1746680736541748,2,0.45479893684387207,
0167,36,3,550.0,33.333333333333336,stimulus_0,0.026662731072760237,33.333333333333336,stimulus_0,0.8686330318450928,2,0.46388792991638184,
0167,37,3,641.6666666666667,33.333333333333336,stimulus_1,0.023866800495101204,33.333333333333336,stimulus_1,2.580550193786621,1,3.510021924972534,
0167,38,3,550.0,33.333333333333336,stimulus_1,0.02098832738706652,33.333333333333336,stimulus_1,1.0541770458221436,2,0.4515218734741211,
0167,39,3,691.6666666666667,33.333333333333336,stimulus_0,0.018211830005446683,33.333333333333336,stimulus_1,0.7084400653839111,1,0.36844801902770996,
0167,0,4,725.0,33.333333333333336,stimulus_1,0.4,33.333333333333336,stimulus_1,1.3976550102233887,2,0.42553210258483887,
0167,1,4,591.6666666666667,33.333333333333336,stimulus_0,0.2509879745459487,33.333333333333336,stimulus_0,0.9234380722045898,2,0.384289026260376,
0167,2,4,650.0,33.333333333333336,stimulus_1,0.15302949805965513,33.333333333333336,stimulus_1,0.7155289649963379,2,0.709475040435791,
0167,3,4,675.0,33.333333333333336,stimulus_0,0.07447047493079645,33.333333333333336,stimulus_0,0.6886930465698242,2,0.6377468109130859,
0167,4,4,641.6666666666667,33.333333333333336,stimulus_1,0.01,33.333333333333336,stimulus_1,0.8085360527038574,1,0.4654381275177002,
0167,5,4,633.3333333333334,33.333333333333336,stimulus_0,0.01,33.333333333333336,stimulus_1,0.6715939044952393,1,0.367218017578125,
0167,6,4,641.6666666666667,33.333333333333336,stimulus_0,0.07052923220481583,33.333333333333336,stimulus_0,0.6087031364440918,2,0.7667508125305176,
0167,7,4,550.0,33.333333333333336,stimulus_1,0.04657433209187717,33.333333333333336,stimulus_1,0.8799519538879395,2,1.272136926651001,
0167,8,4,500.00000000000006,33.333333333333336,stimulus_0,0.02673196139095757,33.333333333333336,stimulus_1,1.3973631858825684,1,0.4486851692199707,
0167,9,4,566.6666666666667,33.333333333333336,stimulus_1,0.07164077160331156,33.333333333333336,stimulus_1,0.9040699005126953,2,0.7034289836883545,
0167,10,4,541.6666666666667,33.333333333333336,stimulus_0,0.05739514180059857,33.333333333333336,stimulus_0,0.6254639625549316,2,0.5177221298217773,
0167,11,4,700.0,33.333333333333336,stimulus_1,0.045188024443374164,33.333333333333336,stimulus_1,0.9468779563903809,2,2.5045149326324463,
0167,12,4,541.6666666666667,33.333333333333336,stimulus_0,0.03439185683395496,33.333333333333336,stimulus_0,0.681372880935669,2,0.669719934463501,
0167,13,4,550.0,33.333333333333336,stimulus_0,0.023970080562048635,33.333333333333336,stimulus_0,3.4398670196533203,2,0.7343089580535889,
0167,14,4,625.0,33.333333333333336,stimulus_1,0.014380113975873132,33.333333333333336,stimulus_1,0.7788050174713135,1,0.3999669551849365,
0167,15,4,708.3333333333334,33.333333333333336,stimulus_1,0.01,33.333333333333336,stimulus_1,1.3104398250579834,1,0.4645230770111084,
0167,16,4,608.3333333333334,33.333333333333336,stimulus_1,0.01,33.333333333333336,stimulus_1,0.7433571815490723,1,0.3843510150909424,
0167,17,4,716.6666666666667,33.333333333333336,stimulus_1,0.01,33.333333333333336,stimulus_1,1.8780381679534912,1,2.2383460998535156,
0167,18,4,508.33333333333337,33.333333333333336,stimulus_0,0.01,33.333333333333336,stimulus_1,0.8347198963165283,1,0.5219500064849854,
0167,19,4,666.6666666666667,33.333333333333336,stimulus_0,0.01,33.333333333333336,stimulus_0,0.8443880081176758,1,0.4017488956451416,
0167,20,4,683.3333333333334,33.333333333333336,stimulus_0,0.01,33.333333333333336,stimulus_0,1.0515108108520508,1,0.32961106300354004,
0167,21,4,550.0,33.333333333333336,stimulus_1,0.01,33.333333333333336,stimulus_0,2.212584972381592,1,0.4084351062774658,
0167,22,4,583.3333333333334,33.333333333333336,stimulus_0,0.01120591532184223,33.333333333333336,stimulus_0,2.4781620502471924,1,0.3776090145111084,
0167,23,4,508.33333333333337,33.333333333333336,stimulus_1,0.01,33.333333333333336,stimulus_0,1.6190528869628906,1,0.9546430110931396,
0167,24,4,675.0,33.333333333333336,stimulus_0,0.01947454626292855,33.333333333333336,stimulus_0,1.9044418334960938,1,0.7835619449615479,
0167,25,4,691.6666666666667,33.333333333333336,stimulus_0,0.014986688892822952,33.333333333333336,stimulus_0,3.872318983078003,1,0.9825379848480225,
0167,26,4,558.3333333333334,33.333333333333336,stimulus_1,0.010519205652831765,33.333333333333336,stimulus_0,1.1815409660339355,1,0.6129271984100342,
0167,27,4,525.0,33.333333333333336,stimulus_1,0.021785763501578903,33.333333333333336,stimulus_0,0.7563178539276123,1,0.4225349426269531,
0167,28,4,641.6666666666667,33.333333333333336,stimulus_0,0.0324868566670537,33.333333333333336,stimulus_0,0.8751089572906494,1,0.38339710235595703,
0167,29,4,516.6666666666667,33.333333333333336,stimulus_1,0.028561270742907763,33.333333333333336,stimulus_1,1.1951861381530762,2,0.44275498390197754,
0167,30,4,675.0,33.333333333333336,stimulus_0,0.024945109967442203,33.333333333333336,stimulus_1,1.924785852432251,1,0.32697415351867676,
0167,31,4,550.0,33.333333333333336,stimulus_1,0.03428917007269228,33.333333333333336,stimulus_1,0.7477359771728516,2,0.34838104248046875,
0167,32,4,608.3333333333334,33.333333333333336,stimulus_0,0.030753175651016595,33.333333333333336,stimulus_0,1.4385929107666016,2,0.37909603118896484,
0167,33,4,750.0,33.333333333333336,stimulus_0,0.027412863226660422,33.333333333333336,stimulus_0,0.7965259552001953,2,0.29642200469970703,
0167,34,4,650.0,33.333333333333336,stimulus_1,0.024306701112996487,33.333333333333336,stimulus_1,0.9164729118347168,2,0.47408103942871094,
0167,35,4,533.3333333333334,33.333333333333336,stimulus_1,0.021138746738592618,33.333333333333336,stimulus_1,0.7844979763031006,1,0.6495919227600098,
0167,36,4,591.6666666666667,33.333333333333336,stimulus_0,0.018102153742261207,33.333333333333336,stimulus_0,1.381514072418213,1,0.46706604957580566,
0167,37,4,650.0,33.333333333333336,stimulus_1,0.015271256182338155,33.333333333333336,stimulus_0,0.7328372001647949,1,0.3048288822174072,
0167,38,4,608.3333333333334,33.333333333333336,stimulus_1,0.023270700944042988,33.333333333333336,stimulus_1,1.0043890476226807,2,0.32382893562316895,
0167,39,4,566.6666666666667,33.333333333333336,stimulus_0,0.020463117875650194,33.333333333333336,stimulus_1,0.8900091648101807,2,0.3669741153717041,
0167,0,5,550.0,33.333333333333336,stimulus_1,0.4,33.333333333333336,stimulus_1,2.181910991668701,2,0.49255990982055664,
0167,1,5,558.3333333333334,33.333333333333336,stimulus_0,0.2509879745459487,33.333333333333336,stimulus_0,0.7805068492889404,2,0.46571803092956543,
0167,2,5,508.33333333333337,33.333333333333336,stimulus_0,0.15302949805965513,33.333333333333336,stimulus_0,0.7610781192779541,2,0.5654969215393066,
0167,3,5,666.6666666666667,33.333333333333336,stimulus_1,0.07447047493079645,33.333333333333336,stimulus_1,0.7794589996337891,3,0.3803839683532715,
0167,4,5,533.3333333333334,33.333333333333336,stimulus_0,0.01,33.333333333333336,stimulus_1,0.9835660457611084,1,1.0614240169525146,
0167,5,5,500.00000000000006,33.333333333333336,stimulus_0,0.1153395389209863,33.333333333333336,stimulus_0,1.9079530239105225,2,1.4720039367675781,
0167,6,5,566.6666666666667,33.333333333333336,stimulus_1,0.08765518823841861,33.333333333333336,stimulus_1,0.7812960147857666,3,0.38253211975097656,
0167,7,5,541.6666666666667,33.333333333333336,stimulus_1,0.0645285831773651,33.333333333333336,stimulus_1,2.4849159717559814,3,0.7654390335083008,
0167,8,5,550.0,33.333333333333336,stimulus_1,0.04384644936456128,33.333333333333336,stimulus_1,1.2189650535583496,3,0.3024630546569824,
0167,9,5,550.0,33.333333333333336,stimulus_1,0.02561117919315764,33.333333333333336,stimulus_1,3.245542049407959,2,0.376568078994751,
0167,10,5,575.0,33.333333333333336,stimulus_0,0.01,33.333333333333336,stimulus_1,0.782512903213501,1,0.5087330341339111,
0167,11,5,733.3333333333334,33.333333333333336,stimulus_0,0.04697067611410688,33.333333333333336,stimulus_0,1.5729141235351562,2,0.3883500099182129,
0167,12,5,691.6666666666667,33.333333333333336,stimulus_1,0.03573532719019629,33.333333333333336,stimulus_1,0.8681697845458984,2,0.9608108997344971,
0167,13,5,741.6666666666667,33.333333333333336,stimulus_1,0.025583452670635498,33.333333333333336,stimulus_1,3.4743471145629883,2,0.4066898822784424,
0167,14,5,641.6666666666667,33.333333333333336,stimulus_0,0.016238258886144552,33.333333333333336,stimulus_1,2.751986026763916,1,0.527885913848877,
0167,15,5,708.3333333333334,33.333333333333336,stimulus_0,0.04030905093510717,33.333333333333336,stimulus_0,0.9305098056793213,2,0.6686310768127441,
0167,16,5,658.3333333333334,33.333333333333336,stimulus_1,0.032433565281726084,33.333333333333336,stimulus_1,0.8094651699066162,2,0.8533339500427246,
0167,17,5,575.0,33.333333333333336,stimulus_0,0.024983654592019344,33.333333333333336,stimulus_0,1.0372288227081299,2,0.48999595642089844,
0167,18,5,500.00000000000006,33.333333333333336,stimulus_1,0.01787968144286206,33.333333333333336,stimulus_1,0.9955291748046875,2,0.5631058216094971,
0167,19,5,600.0,33.333333333333336,stimulus_0,0.011504997349366164,33.333333333333336,stimulus_1,0.8265609741210938,1,0.4328289031982422,
0167,20,5,691.6666666666667,33.333333333333336,stimulus_1,0.027779144648784115,33.333333333333336,stimulus_1,6.709763050079346,1,1.2603139877319336,
0167,21,5,666.6666666666667,33.333333333333336,stimulus_0,0.022219271196613433,33.333333333333336,stimulus_1,0.7128942012786865,1,0.38877296447753906,
0167,22,5,750.0,33.333333333333336,stimulus_0,0.036493553770139076,33.333333333333336,stimulus_0,1.1543629169464111,2,0.4454689025878906,
0167,23,5,650.0,33.333333333333336,stimulus_1,0.03155603212889191,33.333333333333336,stimulus_1,0.7326779365539551,2,0.46695399284362793,
0167,24,5,691.6666666666667,33.333333333333336,stimulus_1,0.026676777506747074,33.333333333333336,stimulus_1,5.73576807975769,2,0.87972092628479,
0167,25,5,541.6666666666667,33.333333333333336,stimulus_0,0.02220314441016591,33.333333333333336,stimulus_1,0.9948420524597168,1,0.2573370933532715,
0167,26,5,525.0,33.333333333333336,stimulus_1,0.03396643677965777,33.333333333333336,stimulus_1,0.7732949256896973,2,0.4208338260650635,
0167,27,5,708.3333333333334,33.333333333333336,stimulus_0,0.02963902714409844,33.333333333333336,stimulus_0,1.5407581329345703,2,0.6285049915313721,
0167,28,5,741.6666666666667,33.333333333333336,stimulus_0,0.02564220953437568,33.333333333333336,stimulus_0,4.578884124755859,2,2.964603900909424,
0167,29,5,566.6666666666667,33.333333333333336,stimulus_0,0.021906452604947224,33.333333333333336,stimulus_1,0.8329930305480957,1,0.3008110523223877,
0167,30,5,566.6666666666667,33.333333333333336,stimulus_1,0.03192053236639203,33.333333333333336,stimulus_0,1.6470608711242676,2,0.35449719429016113,
0167,31,5,750.0,33.333333333333336,stimulus_1,0.04157674840565406,33.333333333333336,stimulus_1,1.157364845275879,2,1.4245870113372803,
0167,32,5,666.6666666666667,33.333333333333336,stimulus_0,0.03804340703010323,33.333333333333336,stimulus_0,1.0079619884490967,2,0.4857292175292969,
0167,33,5,608.3333333333334,33.333333333333336,stimulus_0,0.034773412896593914,33.333333333333336,stimulus_0,0.7039718627929688,2,0.5501861572265625,
0167,34,5,700.0,33.333333333333336,stimulus_1,0.03145885752673516,33.333333333333336,stimulus_1,2.833233118057251,3,0.6050870418548584,
0167,35,5,600.0,33.333333333333336,stimulus_1,0.028280734065443514,33.333333333333336,stimulus_1,0.8349521160125732,3,0.2967240810394287,
0167,36,5,533.3333333333334,33.333333333333336,stimulus_0,0.025323173460836568,33.333333333333336,stimulus_0,0.9524750709533691,2,0.862846851348877,
0167,37,5,708.3333333333334,33.333333333333336,stimulus_1,0.022510400258672958,33.333333333333336,stimulus_0,1.2443320751190186,1,0.42897891998291016,
0167,38,5,508.33333333333337,33.333333333333336,stimulus_0,0.03013096708437052,33.333333333333336,stimulus_0,0.7676548957824707,2,0.5064001083374023,
0167,39,5,566.6666666666667,33.333333333333336,stimulus_1,0.027358781350944383,33.333333333333336,stimulus_1,1.9850068092346191,1,4.278801918029785,
0167,0,6,625.0,33.333333333333336,stimulus_0,0.4,33.333333333333336,stimulus_0,2.655423879623413,3,0.5050549507141113,
0167,1,6,583.3333333333334,33.333333333333336,stimulus_1,0.2509879745459487,33.333333333333336,stimulus_1,2.4786949157714844,3,0.37355494499206543,
0167,2,6,633.3333333333334,33.333333333333336,stimulus_1,0.15302949805965513,33.333333333333336,stimulus_1,1.0872220993041992,3,0.2932319641113281,
0167,3,6,508.33333333333337,33.333333333333336,stimulus_0,0.07447047493079645,33.333333333333336,stimulus_0,0.6641640663146973,3,0.33100295066833496,
0167,4,6,683.3333333333334,33.333333333333336,stimulus_1,0.01,33.333333333333336,stimulus_1,0.8903830051422119,1,0.5164580345153809,
0167,5,6,508.33333333333337,33.333333333333336,stimulus_1,0.01,33.333333333333336,stimulus_1,4.880523920059204,1,1.2238948345184326,
0167,6,6,700.0,33.333333333333336,stimulus_0,0.01,33.333333333333336,stimulus_1,0.6116209030151367,1,0.3477470874786377,
0167,7,6,716.6666666666667,33.333333333333336,stimulus_0,0.038220555504322185,33.333333333333336,stimulus_0,0.7844748497009277,2,0.5811879634857178,
0167,8,6,533.3333333333334,33.333333333333336,stimulus_1,0.01797247030807697,33.333333333333336,stimulus_0,1.4799308776855469,1,0.7166259288787842,
0167,9,6,675.0,33.333333333333336,stimulus_0,0.06295346630208104,33.333333333333336,stimulus_0,0.864677906036377,3,0.34984612464904785,
0167,10,6,658.3333333333334,33.333333333333336,stimulus_0,0.04846400714589344,33.333333333333336,stimulus_0,0.7124390602111816,3,0.3423140048980713,
0167,11,6,650.0,33.333333333333336,stimulus_1,0.0361044470787546,33.333333333333336,stimulus_1,1.7764549255371094,2,0.3963930606842041,
0167,12,6,500.00000000000006,33.333333333333336,stimulus_1,0.025207010902618787,33.333333333333336,stimulus_1,1.006037950515747,2,0.5847349166870117,
0167,13,6,591.6666666666667,33.333333333333336,stimulus_1,0.01536014694592358,33.333333333333336,stimulus_1,0.8776309490203857,2,0.4320549964904785,
0167,14,6,525.0,33.333333333333336,stimulus_0,0.01,33.333333333333336,stimulus_0,1.038827896118164,2,0.36580991744995117,
0167,15,6,733.3333333333334,33.333333333333336,stimulus_0,0.01,33.333333333333336,stimulus_1,0.7860021591186523,1,0.41249608993530273,
0167,16,6,683.3333333333334,33.333333333333336,stimulus_0,0.02113641161080365,33.333333333333336,stimulus_1,1.8585069179534912,1,0.6725170612335205,
0167,17,6,725.0,33.333333333333336,stimulus_1,0.04014494257970386,33.333333333333336,stimulus_1,0.8745541572570801,2,1.464858055114746,
0167,18,6,508.33333333333337,33.333333333333336,stimulus_1,0.03349254588493311,33.333333333333336,stimulus_1,1.185854196548462,2,0.43579912185668945,
0167,19,6,508.33333333333337,33.333333333333336,stimulus_0,0.027112760850070305,33.333333333333336,stimulus_0,1.7248830795288086,2,0.7281749248504639,
0167,20,6,666.6666666666667,33.333333333333336,stimulus_0,0.02138847879241834,33.333333333333336,stimulus_1,2.331521987915039,1,5.243618965148926,
0167,21,6,641.6666666666667,33.333333333333336,stimulus_1,0.03616459706222325,33.333333333333336,stimulus_1,0.9983439445495605,2,0.9887080192565918,
0167,22,6,733.3333333333334,33.333333333333336,stimulus_1,0.031063700703926722,33.333333333333336,stimulus_1,1.2640769481658936,2,0.4396700859069824,
0167,23,6,566.6666666666667,33.333333333333336,stimulus_0,0.026067925422207316,33.333333333333336,stimulus_0,1.5174169540405273,1,0.35203003883361816,
0167,24,6,541.6666666666667,33.333333333333336,stimulus_0,0.021489185681700773,33.333333333333336,stimulus_1,1.6136119365692139,1,0.9139668941497803,
0167,25,6,675.0,33.333333333333336,stimulus_1,0.0335893458362474,33.333333333333336,stimulus_1,1.9103050231933594,2,0.39801716804504395,
0167,26,6,750.0,33.333333333333336,stimulus_1,0.029154604260063888,33.333333333333336,stimulus_1,0.9333398342132568,2,0.37204504013061523,
0167,27,6,666.6666666666667,33.333333333333336,stimulus_0,0.0250846639670117,33.333333333333336,stimulus_1,1.385025978088379,1,0.45977115631103516,
0167,28,6,625.0,33.333333333333336,stimulus_1,0.036228265315277064,33.333333333333336,stimulus_1,0.9201829433441162,2,0.4014861583709717,
0167,29,6,658.3333333333334,33.333333333333336,stimulus_0,0.032538975795884106,33.333333333333336,stimulus_1,1.058250904083252,1,4.7615320682525635,
0167,30,6,716.6666666666667,33.333333333333336,stimulus_0,0.04235483938482226,33.333333333333336,stimulus_0,1.2494549751281738,2,0.4789299964904785,
0167,31,6,508.33333333333337,33.333333333333336,stimulus_1,0.03871650767905788,33.333333333333336,stimulus_1,0.9225289821624756,2,1.3671250343322754,
0167,32,6,575.0,33.333333333333336,stimulus_0,0.03535731205625747,33.333333333333336,stimulus_0,0.7790529727935791,2,0.8323369026184082,
0167,33,6,691.6666666666667,33.333333333333336,stimulus_1,0.03218797542063928,33.333333333333336,stimulus_1,0.852463960647583,2,0.4376950263977051,
0167,34,6,525.0,33.333333333333336,stimulus_0,0.028934877144450977,33.333333333333336,stimulus_0,0.841202974319458,2,0.3881361484527588,
0167,35,6,516.6666666666667,33.333333333333336,stimulus_1,0.02590955284088564,33.333333333333336,stimulus_1,0.9070069789886475,2,0.4171419143676758,
0167,36,6,625.0,33.333333333333336,stimulus_1,0.023048636349527085,33.333333333333336,stimulus_1,2.001485824584961,2,0.8354151248931885,
0167,37,6,508.33333333333337,33.333333333333336,stimulus_0,0.020088520413287292,33.333333333333336,stimulus_0,1.137671947479248,2,0.9285249710083008,
0167,38,6,658.3333333333334,33.333333333333336,stimulus_1,0.01728680747897343,33.333333333333336,stimulus_1,0.8898789882659912,2,0.37683701515197754,
0167,39,6,625.0,33.333333333333336,stimulus_0,0.014651619506997393,33.333333333333336,stimulus_0,0.7042419910430908,2,0.41692590713500977,
0167,0,7,566.6666666666667,33.333333333333336,stimulus_0,0.4,33.333333333333336,stimulus_0,1.193566083908081,3,0.4531738758087158,
0167,1,7,725.0,33.333333333333336,stimulus_1,0.2509879745459487,33.333333333333336,stimulus_1,0.877997875213623,3,0.35120105743408203,
0167,2,7,516.6666666666667,33.333333333333336,stimulus_1,0.15302949805965513,33.333333333333336,stimulus_1,2.4555439949035645,3,0.264477014541626,
0167,3,7,516.6666666666667,33.333333333333336,stimulus_0,0.07447047493079645,33.333333333333336,stimulus_0,0.8114008903503418,3,0.33521008491516113,
0167,4,7,733.3333333333334,33.333333333333336,stimulus_0,0.01,33.333333333333336,stimulus_1,0.734522819519043,1,0.43441200256347656,
0167,5,7,750.0,33.333333333333336,stimulus_1,0.1153395389209863,33.333333333333336,stimulus_1,1.014829158782959,3,0.2936859130859375,
0167,6,7,525.0,33.333333333333336,stimulus_0,0.08765518823841861,33.333333333333336,stimulus_0,0.779965877532959,3,0.2991459369659424,
0167,7,7,516.6666666666667,33.333333333333336,stimulus_1,0.0645285831773651,33.333333333333336,stimulus_1,1.0808320045471191,3,0.3200039863586426,
0167,8,7,500.00000000000006,33.333333333333336,stimulus_0,0.04384644936456128,33.333333333333336,stimulus_0,0.7271618843078613,3,0.3213179111480713,
0167,9,7,500.00000000000006,33.333333333333336,stimulus_1,0.02561117919315764,33.333333333333336,stimulus_1,1.8347229957580566,2,0.403364896774292,
0167,10,7,575.0,33.333333333333336,stimulus_0,0.01,33.333333333333336,stimulus_0,1.3702900409698486,2,0.4267280101776123,
0167,11,7,525.0,33.333333333333336,stimulus_1,0.01,33.333333333333336,stimulus_1,1.1145830154418945,2,0.41144299507141113,
0167,12,7,525.0,33.333333333333336,stimulus_1,0.01,33.333333333333336,stimulus_1,1.0179970264434814,2,0.45250988006591797,
0167,13,7,600.0,33.333333333333336,stimulus_0,0.01,33.333333333333336,stimulus_0,1.80147385597229,1,0.2894730567932129,
0167,14,7,516.6666666666667,33.333333333333336,stimulus_1,0.01,33.333333333333336,stimulus_1,0.9574370384216309,1,0.2565310001373291,
0167,15,7,566.6666666666667,33.333333333333336,stimulus_0,0.01,33.333333333333336,stimulus_1,0.6708459854125977,1,0.6283719539642334,
0167,16,7,700.0,33.333333333333336,stimulus_0,0.01,33.333333333333336,stimulus_1,0.6773281097412109,1,0.3474149703979492,
0167,17,7,750.0,33.333333333333336,stimulus_0,0.016982471803708266,33.333333333333336,stimulus_1,1.0316638946533203,1,0.6117649078369141,
0167,18,7,575.0,33.333333333333336,stimulus_1,0.035842883519231705,33.333333333333336,stimulus_1,0.878349781036377,2,0.32256293296813965,
0167,19,7,516.6666666666667,33.333333333333336,stimulus_1,0.02962618575851983,33.333333333333336,stimulus_1,2.291248083114624,2,0.41579604148864746,
0167,20,7,575.0,33.333333333333336,stimulus_0,0.023672972931566283,33.333333333333336,stimulus_0,0.9073140621185303,2,0.46531081199645996,
0167,21,7,683.3333333333334,33.333333333333336,stimulus_0,0.017865693709105512,33.333333333333336,stimulus_0,1.9987709522247314,1,0.4805159568786621,
0167,22,7,708.3333333333334,33.333333333333336,stimulus_1,0.01260251283514191,33.333333333333336,stimulus_1,0.8386991024017334,1,0.450883150100708,
0167,23,7,550.0,33.333333333333336,stimulus_1,0.01,33.333333333333336,stimulus_1,0.8346939086914062,1,0.5686569213867188,
0167,24,7,650.0,33.333333333333336,stimulus_0,0.01,33.333333333333336,stimulus_0,2.374875068664551,1,1.8494880199432373,
0167,25,7,633.3333333333334,33.333333333333336,stimulus_0,0.01,33.333333333333336,stimulus_0,0.836928129196167,2,1.0100820064544678,
0167,26,7,591.6666666666667,33.333333333333336,stimulus_1,0.01,33.333333333333336,stimulus_0,0.9149489402770996,1,0.42542481422424316,
0167,27,7,566.6666666666667,33.333333333333336,stimulus_1,0.01,33.333333333333336,stimulus_0,1.251373052597046,1,1.2578351497650146,
0167,28,7,741.6666666666667,33.333333333333336,stimulus_1,0.01835858174784022,33.333333333333336,stimulus_0,0.5883829593658447,1,0.38237810134887695,
0167,29,7,733.3333333333334,33.333333333333336,stimulus_0,0.029020696384516764,33.333333333333336,stimulus_0,0.6777980327606201,1,1.1573081016540527,
0167,30,7,575.0,33.333333333333336,stimulus_0,0.02534728413982501,33.333333333333336,stimulus_0,0.9584190845489502,2,0.48592209815979004,
0167,31,7,625.0,33.333333333333336,stimulus_1,0.021894498635853743,33.333333333333336,stimulus_0,2.914354085922241,1,0.7320189476013184,
0167,32,7,533.3333333333334,33.333333333333336,stimulus_0,0.031193511067328594,33.333333333333336,stimulus_0,0.8135039806365967,3,0.6653661727905273,
0167,33,7,541.6666666666667,33.333333333333336,stimulus_1,0.027801041734432097,33.333333333333336,stimulus_1,1.5563380718231201,3,1.10440993309021,
0167,34,7,683.3333333333334,33.333333333333336,stimulus_1,0.024653474099858463,33.333333333333336,stimulus_1,0.7769768238067627,1,0.5128989219665527,
0167,35,7,641.6666666666667,33.333333333333336,stimulus_0,0.021453476374085956,33.333333333333336,stimulus_1,1.0899879932403564,1,0.4057810306549072,
0167,36,7,516.6666666666667,33.333333333333336,stimulus_1,0.029605472549550538,33.333333333333336,stimulus_1,1.427786111831665,2,0.4501039981842041,
0167,37,7,500.00000000000006,33.333333333333336,stimulus_1,0.026685670561630848,33.333333333333336,stimulus_1,1.563810110092163,2,0.35174107551574707,
0167,38,7,625.0,33.333333333333336,stimulus_0,0.023935517251269522,33.333333333333336,stimulus_1,0.9600920677185059,1,0.38145995140075684,
0167,39,7,591.6666666666667,33.333333333333336,stimulus_0,0.031297658268486905,33.333333333333336,stimulus_0,0.8901529312133789,2,0.5006198883056641,
0167,0,8,500.00000000000006,33.333333333333336,stimulus_1,0.4,33.333333333333336,stimulus_1,1.7481088638305664,2,0.3111851215362549,
0167,1,8,683.3333333333334,33.333333333333336,stimulus_1,0.2509879745459487,33.333333333333336,stimulus_1,0.6765639781951904,2,0.36661314964294434,
0167,2,8,575.0,33.333333333333336,stimulus_0,0.15302949805965513,33.333333333333336,stimulus_0,0.5568280220031738,2,0.504080057144165,
0167,3,8,658.3333333333334,33.333333333333336,stimulus_0,0.07447047493079645,33.333333333333336,stimulus_0,0.6005940437316895,3,0.34679603576660156,
0167,4,8,716.6666666666667,33.333333333333336,stimulus_1,0.01,33.333333333333336,stimulus_1,0.8444161415100098,1,0.31096506118774414,
0167,5,8,675.0,33.333333333333336,stimulus_1,0.01,33.333333333333336,stimulus_1,0.8135380744934082,1,1.4714179039001465,
0167,6,8,616.6666666666667,33.333333333333336,stimulus_0,0.01,33.333333333333336,stimulus_1,0.5698039531707764,1,0.49638986587524414,
0167,7,8,625.0,33.333333333333336,stimulus_0,0.038220555504322185,33.333333333333336,stimulus_0,0.6525008678436279,2,0.48882102966308594,
0167,8,8,666.6666666666667,33.333333333333336,stimulus_1,0.01797247030807697,33.333333333333336,stimulus_1,0.867621898651123,1,1.3832690715789795,
0167,9,8,591.6666666666667,33.333333333333336,stimulus_1,0.01,33.333333333333336,stimulus_1,0.5419259071350098,1,0.39353394508361816,
0167,10,8,683.3333333333334,33.333333333333336,stimulus_0,0.01,33.333333333333336,stimulus_1,0.6063659191131592,1,0.4145829677581787,
0167,11,8,658.3333333333334,33.333333333333336,stimulus_0,0.02776394814005323,33.333333333333336,stimulus_0,0.873898983001709,1,0.7684400081634521,
0167,12,8,600.0,33.333333333333336,stimulus_0,0.016711834926427804,33.333333333333336,stimulus_0,0.9645240306854248,1,0.36635303497314453,
0167,13,8,683.3333333333334,33.333333333333336,stimulus_0,0.01,33.333333333333336,stimulus_0,0.6252140998840332,1,0.3764660358428955,
0167,14,8,650.0,33.333333333333336,stimulus_1,0.01,33.333333333333336,stimulus_0,0.5964341163635254,1,0.40796899795532227,
0167,15,8,708.3333333333334,33.333333333333336,stimulus_1,0.022457298747690202,33.333333333333336,stimulus_0,2.2002580165863037,1,2.779337167739868,
0167,16,8,683.3333333333334,33.333333333333336,stimulus_0,0.042669164942374604,33.333333333333336,stimulus_0,1.3263909816741943,3,0.944206953048706,
0167,17,8,650.0,33.333333333333336,stimulus_0,0.03536249073406167,33.333333333333336,stimulus_0,0.7190029621124268,3,0.6025769710540771,
0167,18,8,625.0,33.333333333333336,stimulus_1,0.02888670726786402,33.333333333333336,stimulus_1,1.9549000263214111,2,0.5248579978942871,
0167,19,8,700.0,33.333333333333336,stimulus_1,0.022740426887058518,33.333333333333336,stimulus_0,1.0255529880523682,1,0.957733154296875,
0167,20,8,533.3333333333334,33.333333333333336,stimulus_1,0.03819035281788724,33.333333333333336,stimulus_1,1.2613508701324463,2,0.4298858642578125,
0167,21,8,716.6666666666667,33.333333333333336,stimulus_0,0.032731645627089634,33.333333333333336,stimulus_0,0.8199219703674316,2,0.4286179542541504,
0167,22,8,725.0,33.333333333333336,stimulus_0,0.027391342587783918,33.333333333333336,stimulus_0,1.3498051166534424,2,0.42458105087280273,
0167,23,8,591.6666666666667,33.333333333333336,stimulus_1,0.022550803655955742,33.333333333333336,stimulus_1,0.8493402004241943,1,0.3175981044769287,
0167,24,8,733.3333333333334,33.333333333333336,stimulus_0,0.017748213666500312,33.333333333333336,stimulus_1,0.5615658760070801,1,0.5227169990539551,
0167,25,8,616.6666666666667,33.333333333333336,stimulus_0,0.030144446685532233,33.333333333333336,stimulus_0,0.6480529308319092,2,0.39051079750061035,
0167,26,8,700.0,33.333333333333336,stimulus_1,0.025853368962640955,33.333333333333336,stimulus_1,1.0659220218658447,2,0.59568190574646,
0167,27,8,733.3333333333334,33.333333333333336,stimulus_1,0.02187439896936666,33.333333333333336,stimulus_0,1.4203319549560547,1,3.3640499114990234,
0167,28,8,516.6666666666667,33.333333333333336,stimulus_1,0.0324758516850453,33.333333333333336,stimulus_1,0.9152779579162598,2,4.008479833602905,
0167,29,8,575.0,33.333333333333336,stimulus_1,0.02858033318227099,33.333333333333336,stimulus_1,0.7661998271942139,2,0.4299631118774414,
0167,30,8,733.3333333333334,33.333333333333336,stimulus_0,0.02499201836893472,33.333333333333336,stimulus_0,0.8376750946044922,2,0.4173569679260254,
0167,31,8,508.33333333333337,33.333333333333336,stimulus_0,0.021379742884685138,33.333333333333336,stimulus_0,2.037482976913452,1,3.5470969676971436,
0167,32,8,691.6666666666667,33.333333333333336,stimulus_0,0.017941660158361294,33.333333333333336,stimulus_1,1.0173418521881104,1,0.32893800735473633,
0167,33,8,700.0,33.333333333333336,stimulus_1,0.02701998882501866,33.333333333333336,stimulus_1,0.8065841197967529,1,0.36504697799682617,
0167,34,8,575.0,33.333333333333336,stimulus_1,0.02394558602456659,33.333333333333336,stimulus_1,1.2632369995117188,2,0.35422515869140625,
0167,35,8,641.6666666666667,33.333333333333336,stimulus_0,0.020800183731463695,33.333333333333336,stimulus_0,1.2014920711517334,2,0.39380407333374023,
0167,36,8,708.3333333333334,33.333333333333336,stimulus_1,0.01779885485365923,33.333333333333336,stimulus_0,1.1743450164794922,1,0.2508049011230469,
0167,37,8,508.33333333333337,33.333333333333336,stimulus_0,0.02582674264699264,33.333333333333336,stimulus_0,0.9002828598022461,1,0.37259912490844727,
0167,38,8,716.6666666666667,33.333333333333336,stimulus_0,0.023132908983018063,33.333333333333336,stimulus_0,1.5179169178009033,1,1.2214818000793457,
0167,39,8,591.6666666666667,33.333333333333336,stimulus_1,0.020342013673349257,33.333333333333336,stimulus_0,0.8852598667144775,1,0.38663482666015625,
0167,0,9,750.0,33.333333333333336,stimulus_0,0.4,33.333333333333336,stimulus_0,1.0521190166473389,3,0.7507121562957764,
0167,1,9,541.6666666666667,33.333333333333336,stimulus_1,0.2509879745459487,33.333333333333336,stimulus_1,0.7464461326599121,3,0.3383150100708008,
0167,2,9,566.6666666666667,33.333333333333336,stimulus_1,0.15302949805965513,33.333333333333336,stimulus_1,1.2116711139678955,3,0.241102933883667,
0167,3,9,733.3333333333334,33.333333333333336,stimulus_0,0.07447047493079645,33.333333333333336,stimulus_0,0.7918980121612549,3,0.32147908210754395,
0167,4,9,566.6666666666667,33.333333333333336,stimulus_0,0.01,33.333333333333336,stimulus_1,1.2010130882263184,1,0.8123011589050293,
0167,5,9,616.6666666666667,33.333333333333336,stimulus_1,0.1153395389209863,33.333333333333336,stimulus_1,0.9129750728607178,3,0.4188051223754883,
0167,6,9,700.0,33.333333333333336,stimulus_1,0.08765518823841861,33.333333333333336,stimulus_1,0.7900550365447998,3,0.2600669860839844,
0167,7,9,616.6666666666667,33.333333333333336,stimulus_0,0.0645285831773651,33.333333333333336,stimulus_0,0.7957668304443359,3,0.38237786293029785,
0167,8,9,525.0,33.333333333333336,stimulus_1,0.04384644936456128,33.333333333333336,stimulus_1,1.8253140449523926,1,0.4833488464355469,
0167,9,9,591.6666666666667,33.333333333333336,stimulus_0,0.02561117919315764,33.333333333333336,stimulus_1,0.7352728843688965,1,0.32115602493286133,
0167,10,9,700.0,33.333333333333336,stimulus_0,0.06657659810876931,33.333333333333336,stimulus_0,0.7393438816070557,3,0.3532130718231201,
0167,11,9,591.6666666666667,33.333333333333336,stimulus_1,0.05431663223708755,33.333333333333336,stimulus_1,1.0226998329162598,3,0.7036950588226318,
0167,12,9,500.00000000000006,33.333333333333336,stimulus_1,0.04274029794745687,33.333333333333336,stimulus_1,0.8949542045593262,1,0.4501359462738037,
0167,13,9,650.0,33.333333333333336,stimulus_0,0.03228088725506478,33.333333333333336,stimulus_0,1.3786389827728271,2,0.42488980293273926,
0167,14,9,558.3333333333334,33.333333333333336,stimulus_1,0.022655735698633828,33.333333333333336,stimulus_1,0.9811699390411377,1,0.3945291042327881,
0167,15,9,516.6666666666667,33.333333333333336,stimulus_0,0.013658280952037805,33.333333333333336,stimulus_1,0.5881099700927734,1,0.338986873626709,
0167,16,9,591.6666666666667,33.333333333333336,stimulus_1,0.03502454954947554,33.333333333333336,stimulus_1,0.8470399379730225,2,0.46019506454467773,
0167,17,9,516.6666666666667,33.333333333333336,stimulus_0,0.027933481981658792,33.333333333333336,stimulus_0,1.1999938488006592,2,0.3562510013580322,
0167,18,9,633.3333333333334,33.333333333333336,stimulus_1,0.02118072391924991,33.333333333333336,stimulus_1,1.1365649700164795,2,0.3448829650878906,
0167,19,9,658.3333333333334,33.333333333333336,stimulus_0,0.014663147730085313,33.333333333333336,stimulus_1,1.1175649166107178,1,0.30522799491882324,
0167,20,9,550.0,33.333333333333336,stimulus_0,0.030575189679123038,33.333333333333336,stimulus_0,1.1410808563232422,2,0.7766439914703369,
0167,21,9,558.3333333333334,33.333333333333336,stimulus_1,0.024903173408913015,33.333333333333336,stimulus_1,1.0526621341705322,2,0.8881931304931641,
0167,22,9,616.6666666666667,33.333333333333336,stimulus_1,0.01935178669181753,33.333333333333336,stimulus_0,4.81215500831604,1,0.9572620391845703,
0167,23,9,700.0,33.333333333333336,stimulus_0,0.03326036228105228,33.333333333333336,stimulus_0,0.5583739280700684,2,0.49318790435791016,
0167,24,9,741.6666666666667,33.333333333333336,stimulus_0,0.028320685111245414,33.333333333333336,stimulus_0,0.6597437858581543,2,0.4836428165435791,
0167,25,9,675.0,33.333333333333336,stimulus_1,0.023805893123751976,33.333333333333336,stimulus_0,0.6212320327758789,1,0.504479169845581,
0167,26,9,625.0,33.333333333333336,stimulus_0,0.03542100974829088,33.333333333333336,stimulus_0,1.0006630420684814,2,0.4974701404571533,
0167,27,9,666.6666666666667,33.333333333333336,stimulus_1,0.03135862009892176,33.333333333333336,stimulus_1,1.2312359809875488,2,0.37949085235595703,
0167,28,9,633.3333333333334,33.333333333333336,stimulus_0,0.02728197093607382,33.333333333333336,stimulus_1,1.1411099433898926,1,0.3348259925842285,
0167,29,9,583.3333333333334,33.333333333333336,stimulus_1,0.03802588987955985,33.333333333333336,stimulus_1,0.6740820407867432,2,0.36862802505493164,
0167,30,9,591.6666666666667,33.333333333333336,stimulus_0,0.03438661488021566,33.333333333333336,stimulus_0,0.7172069549560547,2,0.4928162097930908,
0167,31,9,733.3333333333334,33.333333333333336,stimulus_1,0.03070615994622472,33.333333333333336,stimulus_0,3.3067498207092285,1,0.29743385314941406,
0167,32,9,558.3333333333334,33.333333333333336,stimulus_1,0.04007236905083378,33.333333333333336,stimulus_1,1.0274200439453125,2,0.8776328563690186,
0167,33,9,650.0,33.333333333333336,stimulus_0,0.03673591187543668,33.333333333333336,stimulus_0,0.6643760204315186,2,1.1263000965118408,
0167,34,9,541.6666666666667,33.333333333333336,stimulus_1,0.03361449079054596,33.333333333333336,stimulus_1,1.3464219570159912,2,1.072957992553711,
0167,35,9,733.3333333333334,33.333333333333336,stimulus_0,0.030413227013038335,33.333333333333336,stimulus_0,0.8456618785858154,1,0.37120509147644043,
0167,36,9,583.3333333333334,33.333333333333336,stimulus_1,0.027377713743876486,33.333333333333336,stimulus_0,2.574280023574829,1,1.8485300540924072,
0167,37,9,725.0,33.333333333333336,stimulus_1,0.03556528080055327,33.333333333333336,stimulus_1,0.8914999961853027,2,0.4360051155090332,
0167,38,9,525.0,33.333333333333336,stimulus_0,0.03283266797341233,33.333333333333336,stimulus_0,0.5705420970916748,2,0.46010589599609375,
0167,39,9,550.0,33.333333333333336,stimulus_0,0.02999538602624552,33.333333333333336,stimulus_0,0.6256129741668701,2,0.4178590774536133,
