subject,trial_number,staircase_number,fixation_duration_ms,target_duration_ms,target_type,target_contrast,mask_duration_ms,objective_response,objective_response_time_ms,subjective_response,subjective_response_time_ms
0168,0,0,666.6666666666667,33.333333333333336,stimulus_1,0.4,33.333333333333336,stimulus_1,0.9540390968322754,2,1.8439290523529053,
0168,1,0,716.6666666666667,33.333333333333336,stimulus_0,0.2509879745459487,33.333333333333336,stimulus_0,2.924298048019409,2,3.1025729179382324,
0168,2,0,508.33333333333337,33.333333333333336,stimulus_1,0.15302949805965513,33.333333333333336,stimulus_0,4.059818983078003,2,1.2471981048583984,
0168,3,0,575.0,33.333333333333336,stimulus_0,0.28633771842292194,33.333333333333336,stimulus_0,1.739238977432251,3,1.7170498371124268,
0168,4,0,516.6666666666667,33.333333333333336,stimulus_0,0.24998879913919678,33.333333333333336,stimulus_0,2.9364659786224365,2,1.9389970302581787,
0168,5,0,725.0,33.333333333333336,stimulus_1,0.22142643688099556,33.333333333333336,stimulus_1,2.963444948196411,1,2.5270469188690186,
0168,6,0,516.6666666666667,33.333333333333336,stimulus_0,0.19761807270199386,33.333333333333336,stimulus_1,2.208960771560669,2,2.4127190113067627,
0168,7,0,666.6666666666667,33.333333333333336,stimulus_1,0.24786282597537304,33.333333333333336,stimulus_0,3.1783318519592285,2,2.565200090408325,
0168,8,0,508.33333333333337,33.333333333333336,stimulus_1,0.2888845108067041,33.333333333333336,stimulus_1,3.372241973876953,1,2.272390842437744,
0168,9,0,675.0,33.333333333333336,stimulus_0,0.2750371440074333,33.333333333333336,stimulus_0,3.3404150009155273,1,0.8024718761444092,
0168,10,0,708.3333333333334,33.333333333333336,stimulus_0,0.26330741968093174,33.333333333333336,stimulus_0,1.6973950862884521,3,1.6188430786132812,
0168,11,0,716.6666666666667,33.333333333333336,stimulus_1,0.2523505185096071,33.333333333333336,stimulus_1,4.424312114715576,1,0.3421499729156494,
0168,12,0,616.6666666666667,33.333333333333336,stimulus_1,0.2425301400187052,33.333333333333336,stimulus_0,4.400993824005127,2,2.448146104812622,
0168,13,0,700.0,33.333333333333336,stimulus_0,0.2655920854241024,33.333333333333336,stimulus_1,3.3260748386383057,1,2.8815178871154785,
0168,14,0,700.0,33.333333333333336,stimulus_1,0.288013986834672,33.333333333333336,stimulus_1,2.793955087661743,3,1.367244005203247,
0168,15,0,508.33333333333337,33.333333333333336,stimulus_0,0.28043565068413795,33.333333333333336,stimulus_1,4.0741190910339355,2,1.4801509380340576,
0168,16,0,750.0,33.333333333333336,stimulus_0,0.2993874339544193,33.333333333333336,stimulus_0,3.937972068786621,2,3.2445058822631836,
0168,17,0,675.0,33.333333333333336,stimulus_0,0.29268095463129995,33.333333333333336,stimulus_0,3.887752056121826,2,2.7192680835723877,
0168,18,0,525.0,33.333333333333336,stimulus_1,0.2863109897372504,33.333333333333336,stimulus_1,4.040070056915283,1,2.9144339561462402,
0168,19,0,633.3333333333334,33.333333333333336,stimulus_1,0.2806196754248967,33.333333333333336,stimulus_0,2.172307014465332,3,0.623603105545044,
0168,20,0,633.3333333333334,33.333333333333336,stimulus_1,0.2954034477302384,33.333333333333336,stimulus_1,6.489851951599121,2,1.9386839866638184,
0168,21,0,666.6666666666667,33.333333333333336,stimulus_0,0.2902740497305769,33.333333333333336,stimulus_0,1.1752688884735107,3,0.806441068649292,
0168,22,0,575.0,33.333333333333336,stimulus_1,0.28531613846464154,33.333333333333336,stimulus_1,2.4513800144195557,2,1.019312858581543,
0168,23,0,750.0,33.333333333333336,stimulus_0,0.28075970072094003,33.333333333333336,stimulus_0,1.478341817855835,3,0.6185121536254883,
0168,24,0,575.0,33.333333333333336,stimulus_0,0.2762774835418015,33.333333333333336,stimulus_1,1.6788041591644287,2,4.158058166503906,
0168,25,0,575.0,33.333333333333336,stimulus_1,0.28817243878194265,33.333333333333336,stimulus_1,2.8623008728027344,3,0.9908559322357178,
0168,26,0,750.0,33.333333333333336,stimulus_0,0.28413929549007744,33.333333333333336,stimulus_0,1.1523489952087402,4,1.172456979751587,
0168,27,0,641.6666666666667,33.333333333333336,stimulus_1,0.28008742249403995,33.333333333333336,stimulus_0,5.7101709842681885,2,1.6238999366760254,
0168,28,0,625.0,33.333333333333336,stimulus_1,0.2903732928621648,33.333333333333336,stimulus_0,3.43458890914917,1,1.8941879272460938,
0168,29,0,558.3333333333334,33.333333333333336,stimulus_1,0.3003738287028166,33.333333333333336,stimulus_1,1.335784912109375,3,0.6466071605682373,
0168,30,0,533.3333333333334,33.333333333333336,stimulus_0,0.2967862308135235,33.333333333333336,stimulus_0,1.2594590187072754,3,3.1564290523529053,
0168,31,0,675.0,33.333333333333336,stimulus_0,0.2934563825325328,33.333333333333336,stimulus_0,0.8658590316772461,4,0.6576700210571289,
0168,32,0,508.33333333333337,33.333333333333336,stimulus_1,0.29005744445199855,33.333333333333336,stimulus_1,1.5312628746032715,2,0.7943260669708252,
0168,33,0,600.0,33.333333333333336,stimulus_1,0.2868844197209899,33.333333333333336,stimulus_0,2.6356749534606934,1,2.3799359798431396,
0168,34,0,675.0,33.333333333333336,stimulus_0,0.2955052837878581,33.333333333333336,stimulus_0,0.723656177520752,4,0.540316104888916,
0168,35,0,641.6666666666667,33.333333333333336,stimulus_0,0.2926162176504216,33.333333333333336,stimulus_0,1.179231882095337,4,1.1113920211791992,
0168,36,0,541.6666666666667,33.333333333333336,stimulus_1,0.28963285214540657,33.333333333333336,stimulus_0,2.867321014404297,2,0.899507999420166,
0168,37,0,725.0,33.333333333333336,stimulus_1,0.29736230813001274,33.333333333333336,stimulus_0,1.7995789051055908,4,1.6960008144378662,
0168,38,0,750.0,33.333333333333336,stimulus_0,0.30510959522941633,33.333333333333336,stimulus_0,0.8620619773864746,4,0.8828299045562744,
0168,39,0,500.00000000000006,33.333333333333336,stimulus_0,0.3025078370262508,33.333333333333336,stimulus_0,2.916835069656372,4,1.1050209999084473,
0168,0,1,608.3333333333334,33.333333333333336,stimulus_1,0.4,33.333333333333336,stimulus_0,1.4159200191497803,2,0.7644758224487305,
0168,1,1,608.3333333333334,33.333333333333336,stimulus_0,0.6431098143584852,33.333333333333336,stimulus_0,0.6215600967407227,4,0.4581930637359619,
0168,2,1,725.0,33.333333333333336,stimulus_1,0.5620020274253117,33.333333333333336,stimulus_1,0.7286679744720459,4,0.5329511165618896,
0168,3,1,583.3333333333334,33.333333333333336,stimulus_0,0.5133116582634316,33.333333333333336,stimulus_0,0.5790250301361084,4,0.6933078765869141,
0168,4,1,641.6666666666667,33.333333333333336,stimulus_0,0.47731000462160866,33.333333333333336,stimulus_0,0.5617859363555908,4,0.7217919826507568,
0168,5,1,633.3333333333334,33.333333333333336,stimulus_1,0.4492323609778033,33.333333333333336,stimulus_1,0.7455129623413086,3,2.5933549404144287,
0168,6,1,500.00000000000006,33.333333333333336,stimulus_0,0.42493891836841796,33.333333333333336,stimulus_0,0.5610549449920654,4,0.7460289001464844,
0168,7,1,550.0,33.333333333333336,stimulus_1,0.40244342561762325,33.333333333333336,stimulus_1,0.5801591873168945,4,0.651432991027832,
0168,8,1,750.0,33.333333333333336,stimulus_1,0.3818376435872739,33.333333333333336,stimulus_1,0.6271898746490479,4,0.6995730400085449,
0168,9,1,508.33333333333337,33.333333333333336,stimulus_0,0.36197507359786474,33.333333333333336,stimulus_0,0.5500378608703613,4,0.7702548503875732,
0168,10,1,566.6666666666667,33.333333333333336,stimulus_0,0.3418060980871992,33.333333333333336,stimulus_1,1.8317818641662598,1,3.218034029006958,
0168,11,1,616.6666666666667,33.333333333333336,stimulus_1,0.3874328797876013,33.333333333333336,stimulus_1,0.5559709072113037,4,0.6462340354919434,
0168,12,1,650.0,33.333333333333336,stimulus_0,0.3764908599300954,33.333333333333336,stimulus_0,1.3094902038574219,4,1.822248935699463,
0168,13,1,683.3333333333334,33.333333333333336,stimulus_1,0.3663892418274223,33.333333333333336,stimulus_1,0.6669790744781494,4,1.7975919246673584,
0168,14,1,675.0,33.333333333333336,stimulus_0,0.35690056463912334,33.333333333333336,stimulus_0,0.5871012210845947,4,0.9060440063476562,
0168,15,1,733.3333333333334,33.333333333333336,stimulus_1,0.3478478316435681,33.333333333333336,stimulus_1,0.6243422031402588,4,0.864691972732544,
0168,16,1,558.3333333333334,33.333333333333336,stimulus_0,0.3390848969400852,33.333333333333336,stimulus_0,0.8057382106781006,4,0.8651828765869141,
0168,17,1,633.3333333333334,33.333333333333336,stimulus_1,0.3304712776182265,33.333333333333336,stimulus_1,0.6841781139373779,4,1.3503351211547852,
0168,18,1,733.3333333333334,33.333333333333336,stimulus_0,0.3218386801171061,33.333333333333336,stimulus_0,0.5241930484771729,4,0.7669320106506348,
0168,19,1,500.00000000000006,33.333333333333336,stimulus_1,0.31303843113513274,33.333333333333336,stimulus_1,2.8459770679473877,1,1.744368076324463,
0168,20,1,616.6666666666667,33.333333333333336,stimulus_1,0.30387968632634804,33.333333333333336,stimulus_1,0.7897090911865234,4,0.9106271266937256,
0168,21,1,658.3333333333334,33.333333333333336,stimulus_0,0.2941039437056879,33.333333333333336,stimulus_0,2.538889169692993,4,0.7464489936828613,
0168,22,1,550.0,33.333333333333336,stimulus_1,0.2833412414440454,33.333333333333336,stimulus_1,0.7425839900970459,4,0.8571310043334961,
0168,23,1,600.0,33.333333333333336,stimulus_0,0.2710565065361541,33.333333333333336,stimulus_0,0.694965124130249,4,1.4225971698760986,
0168,24,1,691.6666666666667,33.333333333333336,stimulus_0,0.2560845792898186,33.333333333333336,stimulus_0,1.6950030326843262,3,1.9874279499053955,
0168,25,1,725.0,33.333333333333336,stimulus_1,0.23698806140925488,33.333333333333336,stimulus_1,0.781757116317749,4,0.5219149589538574,
0168,26,1,633.3333333333334,33.333333333333336,stimulus_1,0.20791633380184613,33.333333333333336,stimulus_1,1.3377630710601807,4,0.49158620834350586,
0168,27,1,700.0,33.333333333333336,stimulus_0,0.15782662668362546,33.333333333333336,stimulus_0,0.5217030048370361,4,0.4663100242614746,
0168,28,1,741.6666666666667,33.333333333333336,stimulus_1,0.08932626630237867,33.333333333333336,stimulus_0,3.115074872970581,2,0.6065669059753418,
0168,29,1,658.3333333333334,33.333333333333336,stimulus_0,0.212743522819743,33.333333333333336,stimulus_0,0.5569579601287842,4,1.2092630863189697,
0168,30,1,741.6666666666667,33.333333333333336,stimulus_1,0.19078526001390952,33.333333333333336,stimulus_1,1.4240190982818604,2,0.9384810924530029,
0168,31,1,558.3333333333334,33.333333333333336,stimulus_0,0.16590830571483128,33.333333333333336,stimulus_0,0.8406178951263428,3,0.8835189342498779,
0168,32,1,716.6666666666667,33.333333333333336,stimulus_1,0.1413551472495148,33.333333333333336,stimulus_1,0.6833000183105469,3,1.0312199592590332,
0168,33,1,633.3333333333334,33.333333333333336,stimulus_0,0.11824167867846397,33.333333333333336,stimulus_0,0.7526278495788574,3,1.2298829555511475,
0168,34,1,633.3333333333334,33.333333333333336,stimulus_1,0.09861468935849665,33.333333333333336,stimulus_1,0.7842879295349121,4,1.125236988067627,
0168,35,1,616.6666666666667,33.333333333333336,stimulus_0,0.0814652755361846,33.333333333333336,stimulus_0,0.7433309555053711,3,1.786998987197876,
0168,36,1,533.3333333333334,33.333333333333336,stimulus_1,0.06572078666627934,33.333333333333336,stimulus_1,0.596904993057251,4,0.8814888000488281,
0168,37,1,658.3333333333334,33.333333333333336,stimulus_0,0.05158054511586008,33.333333333333336,stimulus_1,1.2454988956451416,1,0.7371838092803955,
0168,38,1,650.0,33.333333333333336,stimulus_1,0.0855733045734019,33.333333333333336,stimulus_1,0.9794731140136719,3,1.3838999271392822,
0168,39,1,575.0,33.333333333333336,stimulus_0,0.07582180250564474,33.333333333333336,stimulus_0,0.832313060760498,4,1.1361660957336426,
0168,0,2,525.0,33.333333333333336,stimulus_1,0.4,33.333333333333336,stimulus_1,0.7709689140319824,3,1.2214808464050293,
0168,1,2,533.3333333333334,33.333333333333336,stimulus_0,0.2509879745459487,33.333333333333336,stimulus_0,0.5058040618896484,4,0.7775478363037109,
0168,2,2,566.6666666666667,33.333333333333336,stimulus_1,0.15302949805965513,33.333333333333336,stimulus_1,0.6786150932312012,3,1.2999889850616455,
0168,3,2,575.0,33.333333333333336,stimulus_0,0.07447047493079645,33.333333333333336,stimulus_0,0.6147608757019043,4,0.7636020183563232,
0168,4,2,708.3333333333334,33.333333333333336,stimulus_1,0.01,33.333333333333336,stimulus_1,1.0372300148010254,1,0.741614818572998,
0168,5,2,533.3333333333334,33.333333333333336,stimulus_0,0.01,33.333333333333336,stimulus_0,2.9576549530029297,2,1.2029569149017334,
0168,6,2,733.3333333333334,33.333333333333336,stimulus_0,0.01,33.333333333333336,stimulus_1,2.638339042663574,1,1.882223129272461,
0168,7,2,516.6666666666667,33.333333333333336,stimulus_1,0.038220555504322185,33.333333333333336,stimulus_0,5.002907991409302,1,1.0518431663513184,
0168,8,2,683.3333333333334,33.333333333333336,stimulus_1,0.08909752170843621,33.333333333333336,stimulus_1,1.6902198791503906,1,1.472217082977295,
0168,9,2,533.3333333333334,33.333333333333336,stimulus_0,0.07282427143849363,33.333333333333336,stimulus_0,0.956428050994873,2,0.8670949935913086,
0168,10,2,683.3333333333334,33.333333333333336,stimulus_0,0.05847936416164412,33.333333333333336,stimulus_0,0.8217148780822754,2,0.8864459991455078,
0168,11,2,525.0,33.333333333333336,stimulus_1,0.04619278082150502,33.333333333333336,stimulus_1,1.2821569442749023,1,1.0827710628509521,
0168,12,2,666.6666666666667,33.333333333333336,stimulus_1,0.03532451902297157,33.333333333333336,stimulus_0,1.0161700248718262,1,1.5700569152832031,
0168,13,2,566.6666666666667,33.333333333333336,stimulus_0,0.06275404063191575,33.333333333333336,stimulus_1,3.589848041534424,1,1.8830561637878418,
0168,14,2,633.3333333333334,33.333333333333336,stimulus_0,0.0863037679773212,33.333333333333336,stimulus_0,0.6057848930358887,2,1.054203987121582,
0168,15,2,516.6666666666667,33.333333333333336,stimulus_1,0.07808265244826501,33.333333333333336,stimulus_1,1.4746818542480469,1,4.074725151062012,
0168,16,2,708.3333333333334,33.333333333333336,stimulus_0,0.07049034092689177,33.333333333333336,stimulus_0,1.4637970924377441,1,0.5345439910888672,
0168,17,2,725.0,33.333333333333336,stimulus_1,0.06339021107385356,33.333333333333336,stimulus_0,1.9374918937683105,2,1.4389219284057617,
0168,18,2,641.6666666666667,33.333333333333336,stimulus_1,0.08073454190233359,33.333333333333336,stimulus_0,2.1389670372009277,1,1.5154199600219727,
0168,19,2,716.6666666666667,33.333333333333336,stimulus_0,0.0975710884178877,33.333333333333336,stimulus_0,3.2605679035186768,2,1.1515700817108154,
0168,20,2,583.3333333333334,33.333333333333336,stimulus_0,0.09167113627312651,33.333333333333336,stimulus_1,2.346273183822632,1,0.5204720497131348,
0168,21,2,733.3333333333334,33.333333333333336,stimulus_0,0.10673416236975747,33.333333333333336,stimulus_1,1.8613219261169434,2,1.058089017868042,
0168,22,2,575.0,33.333333333333336,stimulus_1,0.121892302250586,33.333333333333336,stimulus_1,2.4946649074554443,1,3.4850430488586426,
0168,23,2,658.3333333333334,33.333333333333336,stimulus_1,0.1165259953746885,33.333333333333336,stimulus_1,1.819809913635254,1,2.424201011657715,
0168,24,2,525.0,33.333333333333336,stimulus_0,0.11168209949894903,33.333333333333336,stimulus_0,0.8741130828857422,2,2.3026959896087646,
0168,25,2,725.0,33.333333333333336,stimulus_0,0.10693161272102558,33.333333333333336,stimulus_0,2.4203741550445557,1,1.7206761837005615,
0168,26,2,741.6666666666667,33.333333333333336,stimulus_1,0.10260681800888072,33.333333333333336,stimulus_1,2.3650760650634766,1,1.8167259693145752,
0168,27,2,608.3333333333334,33.333333333333336,stimulus_1,0.0982902112629171,33.333333333333336,stimulus_1,0.8322849273681641,3,0.7245640754699707,
0168,28,2,691.6666666666667,33.333333333333336,stimulus_0,0.09434500226216225,33.333333333333336,stimulus_1,4.278247117996216,1,0.8027889728546143,
0168,29,2,633.3333333333334,33.333333333333336,stimulus_1,0.10453620294221139,33.333333333333336,stimulus_1,1.4500610828399658,2,4.006590127944946,
0168,30,2,566.6666666666667,33.333333333333336,stimulus_1,0.1006747107665244,33.333333333333336,stimulus_1,0.9061579704284668,2,1.1990349292755127,
0168,31,2,608.3333333333334,33.333333333333336,stimulus_0,0.09706285057267694,33.333333333333336,stimulus_1,2.1976840496063232,1,1.73722505569458,
0168,32,2,650.0,33.333333333333336,stimulus_0,0.10671380229556132,33.333333333333336,stimulus_0,0.9155969619750977,2,0.9534199237823486,
0168,33,2,541.6666666666667,33.333333333333336,stimulus_1,0.10345036882914804,33.333333333333336,stimulus_1,0.757544994354248,2,0.842810869216919,
0168,34,2,591.6666666666667,33.333333333333336,stimulus_1,0.1001148319614204,33.333333333333336,stimulus_1,3.3424599170684814,2,1.1004879474639893,
0168,35,2,608.3333333333334,33.333333333333336,stimulus_0,0.09699338583984629,33.333333333333336,stimulus_0,0.8299551010131836,2,0.8521368503570557,
0168,36,2,575.0,33.333333333333336,stimulus_0,0.09407307146638016,33.333333333333336,stimulus_0,0.7860171794891357,3,1.8529319763183594,
0168,37,2,525.0,33.333333333333336,stimulus_1,0.09108329024992157,33.333333333333336,stimulus_1,1.7056539058685303,2,0.3866550922393799,
0168,38,2,533.3333333333334,33.333333333333336,stimulus_1,0.08821350762202529,33.333333333333336,stimulus_1,3.349065065383911,1,1.770179033279419,
0168,39,2,575.0,33.333333333333336,stimulus_0,0.08553720742123094,33.333333333333336,stimulus_0,0.6670718193054199,2,1.1147150993347168,
0168,0,3,708.3333333333334,33.333333333333336,stimulus_1,0.4,33.333333333333336,stimulus_1,2.39054012298584,2,1.800797939300537,
0168,1,3,575.0,33.333333333333336,stimulus_0,0.2509879745459487,33.333333333333336,stimulus_0,0.9160070419311523,2,0.6525518894195557,
0168,2,3,558.3333333333334,33.333333333333336,stimulus_1,0.15302949805965513,33.333333333333336,stimulus_1,2.39697003364563,1,0.6275441646575928,
0168,3,3,508.33333333333337,33.333333333333336,stimulus_0,0.07447047493079645,33.333333333333336,stimulus_0,1.3517868518829346,1,1.740422010421753,
0168,4,3,608.3333333333334,33.333333333333336,stimulus_1,0.01,33.333333333333336,stimulus_1,5.35866904258728,1,0.6329090595245361,
0168,5,3,700.0,33.333333333333336,stimulus_0,0.01,33.333333333333336,stimulus_0,1.7382738590240479,1,0.9431579113006592,
0168,6,3,516.6666666666667,33.333333333333336,stimulus_1,0.01,33.333333333333336,stimulus_0,2.9206180572509766,1,1.6470131874084473,
0168,7,3,625.0,33.333333333333336,stimulus_0,0.038220555504322185,33.333333333333336,stimulus_1,2.277085781097412,1,4.392239809036255,
0168,8,3,700.0,33.333333333333336,stimulus_0,0.08909752170843621,33.333333333333336,stimulus_0,1.3577229976654053,2,0.7515079975128174,
0168,9,3,583.3333333333334,33.333333333333336,stimulus_0,0.07282427143849363,33.333333333333336,stimulus_1,4.010047912597656,1,1.6095290184020996,
0168,10,3,600.0,33.333333333333336,stimulus_1,0.10866268780677224,33.333333333333336,stimulus_0,1.6524598598480225,1,1.7830209732055664,
0168,11,3,500.00000000000006,33.333333333333336,stimulus_1,0.1421091348914626,33.333333333333336,stimulus_1,1.1471529006958008,2,0.3927879333496094,
0168,12,3,725.0,33.333333333333336,stimulus_1,0.13024069308782554,33.333333333333336,stimulus_0,4.406877040863037,1,2.846410036087036,
0168,13,3,650.0,33.333333333333336,stimulus_0,0.15761826972752033,33.333333333333336,stimulus_1,2.7114431858062744,1,1.3390569686889648,
0168,14,3,583.3333333333334,33.333333333333336,stimulus_1,0.1841527114652713,33.333333333333336,stimulus_0,1.5191140174865723,2,2.9097540378570557,
0168,15,3,716.6666666666667,33.333333333333336,stimulus_0,0.2085722807946054,33.333333333333336,stimulus_1,2.3821940422058105,1,2.7613019943237305,
0168,16,3,666.6666666666667,33.333333333333336,stimulus_0,0.2332650525232692,33.333333333333336,stimulus_1,2.718816041946411,1,1.2360260486602783,
0168,17,3,675.0,33.333333333333336,stimulus_1,0.2565900829366966,33.333333333333336,stimulus_1,2.247546911239624,2,1.2437899112701416,
0168,18,3,566.6666666666667,33.333333333333336,stimulus_0,0.24809311718299867,33.333333333333336,stimulus_0,0.804297924041748,3,1.1444799900054932,
0168,19,3,683.3333333333334,33.333333333333336,stimulus_1,0.24039426732493735,33.333333333333336,stimulus_1,1.1782200336456299,3,1.8995258808135986,
0168,20,3,708.3333333333334,33.333333333333336,stimulus_0,0.23331471776041263,33.333333333333336,stimulus_0,0.8190639019012451,3,1.333712100982666,
0168,21,3,525.0,33.333333333333336,stimulus_0,0.2266597578219525,33.333333333333336,stimulus_0,1.150087833404541,2,1.2792601585388184,
0168,22,3,741.6666666666667,33.333333333333336,stimulus_1,0.22076373656170376,33.333333333333336,stimulus_1,0.6022171974182129,4,1.7936220169067383,
0168,23,3,500.00000000000006,33.333333333333336,stimulus_1,0.215128640835195,33.333333333333336,stimulus_1,0.9695630073547363,2,1.628176212310791,
0168,24,3,725.0,33.333333333333336,stimulus_0,0.21000531640951736,33.333333333333336,stimulus_0,0.8608980178833008,3,0.9607079029083252,
0168,25,3,533.3333333333334,33.333333333333336,stimulus_0,0.20505949733358414,33.333333333333336,stimulus_0,0.8528280258178711,3,2.029083013534546,
0168,26,3,500.00000000000006,33.333333333333336,stimulus_1,0.2004992633472848,33.333333333333336,stimulus_1,0.7694971561431885,3,1.7308499813079834,
0168,27,3,500.00000000000006,33.333333333333336,stimulus_1,0.19601979295222136,33.333333333333336,stimulus_1,0.6368489265441895,3,1.3195219039916992,
0168,28,3,608.3333333333334,33.333333333333336,stimulus_0,0.19188581791319279,33.333333333333336,stimulus_0,0.7558200359344482,4,0.9736359119415283,
0168,29,3,533.3333333333334,33.333333333333336,stimulus_1,0.1877358421328602,33.333333333333336,stimulus_1,0.7240369319915771,4,1.0035710334777832,
0168,30,3,516.6666666666667,33.333333333333336,stimulus_1,0.18391532287455933,33.333333333333336,stimulus_1,0.6204679012298584,4,1.012148141860962,
0168,31,3,616.6666666666667,33.333333333333336,stimulus_0,0.18004475592447192,33.333333333333336,stimulus_0,0.5871639251708984,4,1.2799708843231201,
0168,32,3,633.3333333333334,33.333333333333336,stimulus_1,0.17642708583492658,33.333333333333336,stimulus_1,0.7240028381347656,3,1.2547950744628906,
0168,33,3,725.0,33.333333333333336,stimulus_0,0.1730418852692933,33.333333333333336,stimulus_0,0.6073949337005615,4,1.5964338779449463,
0168,34,3,725.0,33.333333333333336,stimulus_0,0.16956632702385924,33.333333333333336,stimulus_0,0.8671889305114746,4,1.5870091915130615,
0168,35,3,541.6666666666667,33.333333333333336,stimulus_1,0.16630522168182432,33.333333333333336,stimulus_1,0.7054910659790039,2,1.9080100059509277,
0168,36,3,516.6666666666667,33.333333333333336,stimulus_0,0.16323045863810054,33.333333333333336,stimulus_0,0.624439001083374,4,2.1449708938598633,
0168,37,3,625.0,33.333333333333336,stimulus_1,0.16005290240419964,33.333333333333336,stimulus_1,0.8376660346984863,3,1.6077978610992432,
0168,38,3,675.0,33.333333333333336,stimulus_0,0.15703018652867562,33.333333333333336,stimulus_0,0.6059689521789551,4,1.0374128818511963,
0168,39,3,600.0,33.333333333333336,stimulus_1,0.15418055261760605,33.333333333333336,stimulus_1,0.7005701065063477,4,1.1830329895019531,
0168,0,4,658.3333333333334,33.333333333333336,stimulus_0,0.4,33.333333333333336,stimulus_0,0.5636141300201416,4,0.5593860149383545,
0168,1,4,650.0,33.333333333333336,stimulus_1,0.2509879745459487,33.333333333333336,stimulus_1,0.5280289649963379,4,0.5610740184783936,
0168,2,4,516.6666666666667,33.333333333333336,stimulus_0,0.15302949805965513,33.333333333333336,stimulus_0,0.5629360675811768,4,0.711899995803833,
0168,3,4,733.3333333333334,33.333333333333336,stimulus_1,0.07447047493079645,33.333333333333336,stimulus_1,0.7949769496917725,3,0.8295807838439941,
0168,4,4,708.3333333333334,33.333333333333336,stimulus_0,0.01,33.333333333333336,stimulus_0,1.7931110858917236,2,1.399507999420166,
0168,5,4,633.3333333333334,33.333333333333336,stimulus_1,0.01,33.333333333333336,stimulus_1,2.0712950229644775,2,3.4907848834991455,
0168,6,4,641.6666666666667,33.333333333333336,stimulus_0,0.01,33.333333333333336,stimulus_1,1.1181199550628662,1,1.0156440734863281,
0168,7,4,600.0,33.333333333333336,stimulus_1,0.038220555504322185,33.333333333333336,stimulus_0,1.1901271343231201,1,1.917983055114746,
0168,8,4,575.0,33.333333333333336,stimulus_1,0.08909752170843621,33.333333333333336,stimulus_1,4.807183027267456,1,0.4235851764678955,
0168,9,4,725.0,33.333333333333336,stimulus_1,0.07282427143849363,33.333333333333336,stimulus_0,0.8688781261444092,4,0.9214041233062744,
0168,10,4,741.6666666666667,33.333333333333336,stimulus_0,0.10866268780677224,33.333333333333336,stimulus_0,0.6678471565246582,3,0.8514690399169922,
0168,11,4,741.6666666666667,33.333333333333336,stimulus_0,0.09616493121541553,33.333333333333336,stimulus_1,2.2276341915130615,2,2.807727098464966,
0168,12,4,533.3333333333334,33.333333333333336,stimulus_0,0.1262047616129554,33.333333333333336,stimulus_0,0.687626838684082,2,1.8353910446166992,
0168,13,4,533.3333333333334,33.333333333333336,stimulus_1,0.11615786745059264,33.333333333333336,stimulus_1,0.9321908950805664,2,1.133030891418457,
0168,14,4,616.6666666666667,33.333333333333336,stimulus_0,0.10716198501196439,33.333333333333336,stimulus_0,1.0925319194793701,2,0.9602839946746826,
0168,15,4,641.6666666666667,33.333333333333336,stimulus_1,0.09894496485548021,33.333333333333336,stimulus_0,1.7335879802703857,2,1.54246187210083,
0168,16,4,641.6666666666667,33.333333333333336,stimulus_1,0.11965073066433951,33.333333333333336,stimulus_1,0.8501100540161133,2,1.3284831047058105,
0168,17,4,608.3333333333334,33.333333333333336,stimulus_0,0.11245453076434664,33.333333333333336,stimulus_0,0.9857079982757568,3,1.5558321475982666,
0168,18,4,616.6666666666667,33.333333333333336,stimulus_0,0.10566004008816604,33.333333333333336,stimulus_0,0.6141140460968018,3,1.256761074066162,
0168,19,4,750.0,33.333333333333336,stimulus_1,0.09959606372733115,33.333333333333336,stimulus_1,0.620995044708252,2,1.3260200023651123,
0168,20,4,700.0,33.333333333333336,stimulus_1,0.09380734210145475,33.333333333333336,stimulus_1,1.3500969409942627,2,1.169823169708252,
0168,21,4,650.0,33.333333333333336,stimulus_0,0.08816434731621614,33.333333333333336,stimulus_1,1.1209158897399902,1,0.8805160522460938,
0168,22,4,725.0,33.333333333333336,stimulus_1,0.10244681706889719,33.333333333333336,stimulus_0,1.817366123199463,1,2.4268031120300293,
0168,23,4,725.0,33.333333333333336,stimulus_0,0.11566995854886658,33.333333333333336,stimulus_0,2.061124086380005,2,1.0601179599761963,
0168,24,4,533.3333333333334,33.333333333333336,stimulus_1,0.11103004198758853,33.333333333333336,stimulus_0,2.2441768646240234,2,0.7895691394805908,
0168,25,4,750.0,33.333333333333336,stimulus_0,0.12330473669786624,33.333333333333336,stimulus_0,0.8169291019439697,2,1.0766651630401611,
0168,26,4,658.3333333333334,33.333333333333336,stimulus_1,0.11878618413747044,33.333333333333336,stimulus_1,0.7908380031585693,2,0.6826138496398926,
0168,27,4,700.0,33.333333333333336,stimulus_0,0.11466910018391013,33.333333333333336,stimulus_1,1.4631669521331787,1,0.6758909225463867,
0168,28,4,666.6666666666667,33.333333333333336,stimulus_1,0.1252061916899017,33.333333333333336,stimulus_1,1.7160108089447021,2,2.2926371097564697,
0168,29,4,550.0,33.333333333333336,stimulus_0,0.12144615757681343,33.333333333333336,stimulus_1,2.3939030170440674,1,3.03629207611084,
0168,30,4,750.0,33.333333333333336,stimulus_0,0.13152819169922614,33.333333333333336,stimulus_1,4.969613075256348,1,1.234039068222046,
0168,31,4,725.0,33.333333333333336,stimulus_1,0.14139779796137347,33.333333333333336,stimulus_0,4.483994960784912,1,2.525341033935547,
0168,32,4,533.3333333333334,33.333333333333336,stimulus_0,0.15110605867061364,33.333333333333336,stimulus_0,3.4846129417419434,2,0.8590340614318848,
0168,33,4,558.3333333333334,33.333333333333336,stimulus_1,0.14754397103424327,33.333333333333336,stimulus_1,1.1012499332427979,2,0.8903789520263672,
0168,34,4,591.6666666666667,33.333333333333336,stimulus_0,0.144260979484228,33.333333333333336,stimulus_0,0.6011929512023926,2,1.3954482078552246,
0168,35,4,683.3333333333334,33.333333333333336,stimulus_1,0.14093299403353765,33.333333333333336,stimulus_1,1.1571738719940186,2,1.1764700412750244,
0168,36,4,691.6666666666667,33.333333333333336,stimulus_1,0.1377835403457876,33.333333333333336,stimulus_1,0.8944158554077148,2,1.3770320415496826,
0168,37,4,500.00000000000006,33.333333333333336,stimulus_0,0.1348625556741042,33.333333333333336,stimulus_0,0.8847439289093018,2,0.9536600112915039,
0168,38,4,675.0,33.333333333333336,stimulus_1,0.13189491315254126,33.333333333333336,stimulus_1,4.391647100448608,1,1.5949809551239014,
0168,39,4,658.3333333333334,33.333333333333336,stimulus_0,0.12902697868192975,33.333333333333336,stimulus_0,0.5504608154296875,3,0.8699049949645996,
0168,0,5,666.6666666666667,33.333333333333336,stimulus_1,0.4,33.333333333333336,stimulus_1,0.6690819263458252,4,0.8602621555328369,
0168,1,5,608.3333333333334,33.333333333333336,stimulus_0,0.2509879745459487,33.333333333333336,stimulus_0,0.5163378715515137,4,0.8570089340209961,
0168,2,5,558.3333333333334,33.333333333333336,stimulus_0,0.15302949805965513,33.333333333333336,stimulus_0,0.5513989925384521,4,1.1597230434417725,
0168,3,5,725.0,33.333333333333336,stimulus_1,0.07447047493079645,33.333333333333336,stimulus_0,2.0382440090179443,2,0.8748650550842285,
0168,4,5,591.6666666666667,33.333333333333336,stimulus_1,0.19116438799299137,33.333333333333336,stimulus_0,0.7849609851837158,2,0.860896110534668,
0168,5,5,541.6666666666667,33.333333333333336,stimulus_1,0.26628601124553775,33.333333333333336,stimulus_1,0.6097249984741211,2,1.0507218837738037,
0168,6,5,650.0,33.333333333333336,stimulus_0,0.24195964796351932,33.333333333333336,stimulus_0,0.5474569797515869,3,0.6359870433807373,
0168,7,5,583.3333333333334,33.333333333333336,stimulus_0,0.22176047137269736,33.333333333333336,stimulus_0,0.6781818866729736,3,0.7984189987182617,
0168,8,5,608.3333333333334,33.333333333333336,stimulus_0,0.2047776179182729,33.333333333333336,stimulus_0,0.6902830600738525,3,1.179189920425415,
0168,9,5,691.6666666666667,33.333333333333336,stimulus_1,0.18973153913907215,33.333333333333336,stimulus_1,0.48617005348205566,3,1.0432171821594238,
0168,10,5,733.3333333333334,33.333333333333336,stimulus_0,0.17675537773936253,33.333333333333336,stimulus_0,2.580084800720215,2,1.0039618015289307,
0168,11,5,725.0,33.333333333333336,stimulus_1,0.16521142529310737,33.333333333333336,stimulus_1,1.2317488193511963,3,1.403926134109497,
0168,12,5,700.0,33.333333333333336,stimulus_0,0.15468696481517696,33.333333333333336,stimulus_0,0.6475789546966553,3,1.2562241554260254,
0168,13,5,508.33333333333337,33.333333333333336,stimulus_1,0.14423215824328278,33.333333333333336,stimulus_1,1.3787219524383545,3,0.8258018493652344,
0168,14,5,633.3333333333334,33.333333333333336,stimulus_1,0.13435481988456738,33.333333333333336,stimulus_1,1.9883089065551758,3,2.7361409664154053,
0168,15,5,725.0,33.333333333333336,stimulus_0,0.12487470399565176,33.333333333333336,stimulus_0,0.5426650047302246,3,1.4705560207366943,
0168,16,5,716.6666666666667,33.333333333333336,stimulus_1,0.11564170378019639,33.333333333333336,stimulus_1,0.7247419357299805,3,1.763185977935791,
0168,17,5,608.3333333333334,33.333333333333336,stimulus_1,0.10713518566690278,33.333333333333336,stimulus_1,1.3539211750030518,3,1.7283618450164795,
0168,18,5,683.3333333333334,33.333333333333336,stimulus_0,0.09863716892509744,33.333333333333336,stimulus_0,0.6430649757385254,2,1.12233304977417,
0168,19,5,683.3333333333334,33.333333333333336,stimulus_0,0.09003898139582794,33.333333333333336,stimulus_0,0.6866002082824707,3,2.0920119285583496,
0168,20,5,750.0,33.333333333333336,stimulus_0,0.08116494067969388,33.333333333333336,stimulus_0,2.172563076019287,1,1.550948143005371,
0168,21,5,500.00000000000006,33.333333333333336,stimulus_1,0.07191197915931147,33.333333333333336,stimulus_1,0.7559230327606201,2,3.820488929748535,
0168,22,5,708.3333333333334,33.333333333333336,stimulus_1,0.062127639224350384,33.333333333333336,stimulus_1,2.239773988723755,2,1.057361125946045,
0168,23,5,533.3333333333334,33.333333333333336,stimulus_0,0.05163844879425067,33.333333333333336,stimulus_0,1.8996708393096924,1,0.9979028701782227,
0168,24,5,716.6666666666667,33.333333333333336,stimulus_0,0.04026731681141216,33.333333333333336,stimulus_0,0.8331019878387451,1,0.9332799911499023,
0168,25,5,508.33333333333337,33.333333333333336,stimulus_1,0.02774720018552601,33.333333333333336,stimulus_0,1.111217975616455,1,1.780203104019165,
0168,26,5,683.3333333333334,33.333333333333336,stimulus_0,0.058802717935136806,33.333333333333336,stimulus_1,0.8304049968719482,1,1.9939138889312744,
0168,27,5,591.6666666666667,33.333333333333336,stimulus_1,0.07708475460926012,33.333333333333336,stimulus_1,2.34102201461792,1,3.636686086654663,
0168,28,5,508.33333333333337,33.333333333333336,stimulus_0,0.07178122280602006,33.333333333333336,stimulus_0,1.4372949600219727,1,0.9671149253845215,
0168,29,5,741.6666666666667,33.333333333333336,stimulus_1,0.06630086278109582,33.333333333333336,stimulus_0,0.9525840282440186,1,0.800774097442627,
0168,30,5,666.6666666666667,33.333333333333336,stimulus_0,0.08074091639517844,33.333333333333336,stimulus_1,0.9922587871551514,1,1.2094800472259521,
0168,31,5,575.0,33.333333333333336,stimulus_1,0.09272063729229002,33.333333333333336,stimulus_1,3.029078960418701,1,2.197906017303467,
0168,32,5,508.33333333333337,33.333333333333336,stimulus_1,0.08860162993875875,33.333333333333336,stimulus_0,2.206601142883301,1,2.581707000732422,
0168,33,5,716.6666666666667,33.333333333333336,stimulus_0,0.09931915847854456,33.333333333333336,stimulus_1,1.3504440784454346,1,2.6907339096069336,
0168,34,5,541.6666666666667,33.333333333333336,stimulus_1,0.10919056184321507,33.333333333333336,stimulus_0,2.0422399044036865,1,3.3837430477142334,
0168,35,5,558.3333333333334,33.333333333333336,stimulus_0,0.11851797346506426,33.333333333333336,stimulus_0,3.0015790462493896,1,1.8294260501861572,
0168,36,5,683.3333333333334,33.333333333333336,stimulus_0,0.1153276507395159,33.333333333333336,stimulus_1,1.4108078479766846,1,1.0925719738006592,
0168,37,5,541.6666666666667,33.333333333333336,stimulus_1,0.12424498667585598,33.333333333333336,stimulus_1,0.9009838104248047,1,1.2328729629516602,
0168,38,5,725.0,33.333333333333336,stimulus_1,0.12113923575105018,33.333333333333336,stimulus_0,0.7631218433380127,1,0.9774940013885498,
0168,39,5,733.3333333333334,33.333333333333336,stimulus_0,0.129092574983517,33.333333333333336,stimulus_0,1.1040198802947998,1,1.0481369495391846,
0168,0,6,650.0,33.333333333333336,stimulus_0,0.4,33.333333333333336,stimulus_0,0.9943890571594238,2,1.0831019878387451,
0168,1,6,500.00000000000006,33.333333333333336,stimulus_1,0.2509879745459487,33.333333333333336,stimulus_1,0.9335100650787354,2,0.8173489570617676,
0168,2,6,691.6666666666667,33.333333333333336,stimulus_1,0.15302949805965513,33.333333333333336,stimulus_1,2.226989984512329,1,0.8168511390686035,
0168,3,6,525.0,33.333333333333336,stimulus_0,0.07447047493079645,33.333333333333336,stimulus_0,2.836207151412964,1,2.08581805229187,
0168,4,6,725.0,33.333333333333336,stimulus_0,0.01,33.333333333333336,stimulus_1,1.5079729557037354,2,1.731222152709961,
0168,5,6,633.3333333333334,33.333333333333336,stimulus_1,0.1153395389209863,33.333333333333336,stimulus_1,1.078434944152832,2,1.413694143295288,
0168,6,6,533.3333333333334,33.333333333333336,stimulus_1,0.08765518823841861,33.333333333333336,stimulus_1,0.81467604637146,1,0.6465790271759033,
0168,7,6,583.3333333333334,33.333333333333336,stimulus_0,0.0645285831773651,33.333333333333336,stimulus_0,1.2955348491668701,1,1.0079450607299805,
0168,8,6,500.00000000000006,33.333333333333336,stimulus_1,0.04384644936456128,33.333333333333336,stimulus_0,0.9703850746154785,1,1.795032024383545,
0168,9,6,566.6666666666667,33.333333333333336,stimulus_0,0.08680296160416001,33.333333333333336,stimulus_1,1.8213560581207275,1,3.8309500217437744,
0168,10,6,733.3333333333334,33.333333333333336,stimulus_1,0.12379550442695986,33.333333333333336,stimulus_0,0.9927830696105957,2,0.9694118499755859,
0168,11,6,591.6666666666667,33.333333333333336,stimulus_0,0.15561180681504494,33.333333333333336,stimulus_0,0.7637481689453125,2,1.3717761039733887,
0168,12,6,558.3333333333334,33.333333333333336,stimulus_0,0.14443602949899548,33.333333333333336,stimulus_0,0.5807180404663086,2,1.5615060329437256,
0168,13,6,750.0,33.333333333333336,stimulus_0,0.13400327166307574,33.333333333333336,stimulus_0,0.7246701717376709,2,2.6011099815368652,
0168,14,6,583.3333333333334,33.333333333333336,stimulus_1,0.12465897984542146,33.333333333333336,stimulus_1,0.6472179889678955,2,1.4579241275787354,
0168,15,6,708.3333333333334,33.333333333333336,stimulus_1,0.11612164292708083,33.333333333333336,stimulus_1,4.148454904556274,2,2.6055569648742676,
0168,16,6,633.3333333333334,33.333333333333336,stimulus_1,0.1086805902204695,33.333333333333336,stimulus_1,0.8375811576843262,2,1.2015788555145264,
0168,17,6,566.6666666666667,33.333333333333336,stimulus_0,0.10169280667083225,33.333333333333336,stimulus_0,0.7706351280212402,2,1.1402270793914795,
0168,18,6,750.0,33.333333333333336,stimulus_0,0.09502096321509279,33.333333333333336,stimulus_0,0.8035950660705566,2,1.473907232284546,
0168,19,6,666.6666666666667,33.333333333333336,stimulus_1,0.08900363114913723,33.333333333333336,stimulus_1,3.411449909210205,1,0.9778130054473877,
0168,20,6,608.3333333333334,33.333333333333336,stimulus_0,0.08320228100268579,33.333333333333336,stimulus_1,1.3223090171813965,2,1.3037948608398438,
0168,21,6,575.0,33.333333333333336,stimulus_1,0.09784771845156082,33.333333333333336,stimulus_1,0.9975550174713135,1,1.6811418533325195,
0168,22,6,591.6666666666667,33.333333333333336,stimulus_0,0.09274075898682005,33.333333333333336,stimulus_0,3.123220205307007,1,2.2304189205169678,
0168,23,6,550.0,33.333333333333336,stimulus_1,0.0876831339190397,33.333333333333336,stimulus_1,0.8830080032348633,2,1.0078530311584473,
0168,24,6,516.6666666666667,33.333333333333336,stimulus_0,0.08306065401852164,33.333333333333336,stimulus_1,1.6569840908050537,2,1.8692078590393066,
0168,25,6,641.6666666666667,33.333333333333336,stimulus_1,0.0950520750574827,33.333333333333336,stimulus_1,1.1514649391174316,2,3.480844020843506,
0168,26,6,683.3333333333334,33.333333333333336,stimulus_0,0.0908999281479918,33.333333333333336,stimulus_1,1.1562108993530273,1,1.8236699104309082,
0168,27,6,733.3333333333334,33.333333333333336,stimulus_1,0.10204491490538009,33.333333333333336,stimulus_0,1.3090460300445557,1,1.1041300296783447,
0168,28,6,550.0,33.333333333333336,stimulus_1,0.11267647885670157,33.333333333333336,stimulus_1,3.210897922515869,1,1.4654650688171387,
0168,29,6,541.6666666666667,33.333333333333336,stimulus_1,0.10875574860859244,33.333333333333336,stimulus_1,1.0635712146759033,2,0.9114389419555664,
0168,30,6,666.6666666666667,33.333333333333336,stimulus_0,0.10514579977505484,33.333333333333336,stimulus_0,1.245239019393921,1,0.9467611312866211,
0168,31,6,633.3333333333334,33.333333333333336,stimulus_0,0.10174717549960505,33.333333333333336,stimulus_1,1.3795900344848633,1,2.084739923477173,
0168,32,6,700.0,33.333333333333336,stimulus_1,0.11091542582718089,33.333333333333336,stimulus_1,1.4780821800231934,2,1.3251469135284424,
0168,33,6,500.00000000000006,33.333333333333336,stimulus_0,0.10757680615069887,33.333333333333336,stimulus_0,1.3008370399475098,1,1.1781129837036133,
0168,34,6,625.0,33.333333333333336,stimulus_1,0.10447667137799815,33.333333333333336,stimulus_1,2.2428829669952393,1,4.173398017883301,
0168,35,6,600.0,33.333333333333336,stimulus_0,0.10132004585705073,33.333333333333336,stimulus_1,3.468027114868164,1,2.418246030807495,
0168,36,6,508.33333333333337,33.333333333333336,stimulus_1,0.10937085412187664,33.333333333333336,stimulus_1,2.9078500270843506,1,1.557770013809204,
0168,37,6,566.6666666666667,33.333333333333336,stimulus_0,0.10649396193806693,33.333333333333336,stimulus_1,1.1738131046295166,1,3.262510061264038,
0168,38,6,691.6666666666667,33.333333333333336,stimulus_0,0.1144402848063803,33.333333333333336,stimulus_0,1.4788520336151123,2,1.3039591312408447,
0168,39,6,633.3333333333334,33.333333333333336,stimulus_1,0.11162155643551969,33.333333333333336,stimulus_1,1.5573539733886719,1,4.561429023742676,
0168,0,7,583.3333333333334,33.333333333333336,stimulus_0,0.4,33.333333333333336,stimulus_0,0.7159488201141357,3,0.8927011489868164,
0168,1,7,516.6666666666667,33.333333333333336,stimulus_0,0.2509879745459487,33.333333333333336,stimulus_0,0.6351330280303955,3,0.7510678768157959,
0168,2,7,558.3333333333334,33.333333333333336,stimulus_1,0.15302949805965513,33.333333333333336,stimulus_1,1.4526960849761963,2,2.1638309955596924,
0168,3,7,633.3333333333334,33.333333333333336,stimulus_1,0.07447047493079645,33.333333333333336,stimulus_0,1.016718864440918,2,1.1642279624938965,
0168,4,7,608.3333333333334,33.333333333333336,stimulus_0,0.19116438799299137,33.333333333333336,stimulus_0,0.5562429428100586,3,0.8405539989471436,
0168,5,7,716.6666666666667,33.333333333333336,stimulus_1,0.15879956701154668,33.333333333333336,stimulus_0,0.9384310245513916,3,0.8492112159729004,
0168,6,7,716.6666666666667,33.333333333333336,stimulus_1,0.22112360739619474,33.333333333333336,stimulus_0,0.7296819686889648,2,1.0949680805206299,
0168,7,7,716.6666666666667,33.333333333333336,stimulus_0,0.271934799128313,33.333333333333336,stimulus_0,0.528425931930542,3,0.9206540584564209,
0168,8,7,750.0,33.333333333333336,stimulus_0,0.2539779978612475,33.333333333333336,stimulus_0,0.5147719383239746,3,1.0476510524749756,
0168,9,7,516.6666666666667,33.333333333333336,stimulus_1,0.2387717920591158,33.333333333333336,stimulus_0,4.7532970905303955,3,1.0935919284820557,
0168,10,7,708.3333333333334,33.333333333333336,stimulus_0,0.2725550649165437,33.333333333333336,stimulus_0,0.6234869956970215,3,0.9712531566619873,
0168,11,7,608.3333333333334,33.333333333333336,stimulus_1,0.260637458980624,33.333333333333336,stimulus_1,0.6398701667785645,2,1.30302095413208,
0168,12,7,600.0,33.333333333333336,stimulus_0,0.25025559878377357,33.333333333333336,stimulus_0,1.4515800476074219,3,0.8518331050872803,
0168,13,7,550.0,33.333333333333336,stimulus_1,0.24097171129650355,33.333333333333336,stimulus_1,0.7305209636688232,3,0.9128551483154297,
0168,14,7,725.0,33.333333333333336,stimulus_0,0.23249051348251243,33.333333333333336,stimulus_0,0.5931551456451416,3,0.9449248313903809,
0168,15,7,500.00000000000006,33.333333333333336,stimulus_1,0.22460762532222012,33.333333333333336,stimulus_1,1.1149120330810547,2,0.819634199142456,
0168,16,7,650.0,33.333333333333336,stimulus_0,0.21718712836183626,33.333333333333336,stimulus_0,0.5925970077514648,3,0.9582891464233398,
0168,17,7,591.6666666666667,33.333333333333336,stimulus_0,0.21058623195716136,33.333333333333336,stimulus_0,0.9729812145233154,3,2.698857069015503,
0168,18,7,583.3333333333334,33.333333333333336,stimulus_1,0.2042395009170777,33.333333333333336,stimulus_1,0.771111011505127,2,0.8918390274047852,
0168,19,7,658.3333333333334,33.333333333333336,stimulus_1,0.1980681782831586,33.333333333333336,stimulus_1,0.6503210067749023,2,1.5729620456695557,
0168,20,7,658.3333333333334,33.333333333333336,stimulus_1,0.1924633510166153,33.333333333333336,stimulus_1,1.064424991607666,2,1.5911281108856201,
0168,21,7,675.0,33.333333333333336,stimulus_1,0.1869117552481467,33.333333333333336,stimulus_1,0.8183281421661377,4,1.4670639038085938,
0168,22,7,500.00000000000006,33.333333333333336,stimulus_0,0.1818125180296035,33.333333333333336,stimulus_0,0.6758739948272705,4,1.4722990989685059,
0168,23,7,600.0,33.333333333333336,stimulus_0,0.17669823022515707,33.333333333333336,stimulus_0,0.8659458160400391,4,3.150130033493042,
0168,24,7,708.3333333333334,33.333333333333336,stimulus_0,0.17195820702464007,33.333333333333336,stimulus_0,0.8291058540344238,4,1.3143808841705322,
0168,25,7,683.3333333333334,33.333333333333336,stimulus_1,0.16714729045082524,33.333333333333336,stimulus_0,0.5703520774841309,4,1.2050108909606934,
0168,26,7,708.3333333333334,33.333333333333336,stimulus_1,0.17976795520533642,33.333333333333336,stimulus_1,2.276473045349121,2,1.161496877670288,
0168,27,7,658.3333333333334,33.333333333333336,stimulus_0,0.17561268376099845,33.333333333333336,stimulus_0,0.5995240211486816,4,1.6541481018066406,
0168,28,7,516.6666666666667,33.333333333333336,stimulus_0,0.17171086758814688,33.333333333333336,stimulus_0,0.6301109790802002,4,0.9704620838165283,
0168,29,7,533.3333333333334,33.333333333333336,stimulus_1,0.1677160356856065,33.333333333333336,stimulus_1,0.5611541271209717,4,0.9341781139373779,
0168,30,7,750.0,33.333333333333336,stimulus_0,0.1639792797849455,33.333333333333336,stimulus_0,0.5885629653930664,4,1.3985769748687744,
0168,31,7,516.6666666666667,33.333333333333336,stimulus_1,0.1601517968097476,33.333333333333336,stimulus_0,2.6180479526519775,1,0.6972711086273193,
0168,32,7,616.6666666666667,33.333333333333336,stimulus_0,0.17001327069290997,33.333333333333336,stimulus_0,0.5827548503875732,3,0.8550748825073242,
0168,33,7,583.3333333333334,33.333333333333336,stimulus_1,0.16662547084922802,33.333333333333336,stimulus_1,1.363558053970337,4,1.1583590507507324,
0168,34,7,666.6666666666667,33.333333333333336,stimulus_0,0.1634321999756344,33.333333333333336,stimulus_0,0.6000449657440186,4,2.9134938716888428,
0168,35,7,550.0,33.333333333333336,stimulus_1,0.16012988649977328,33.333333333333336,stimulus_1,0.6464889049530029,4,2.504254102706909,
0168,36,7,533.3333333333334,33.333333333333336,stimulus_0,0.1569596312712722,33.333333333333336,stimulus_0,0.5074241161346436,4,1.3716678619384766,
0168,37,7,608.3333333333334,33.333333333333336,stimulus_1,0.15396324320497895,33.333333333333336,stimulus_1,1.101442813873291,4,3.828868865966797,
0168,38,7,658.3333333333334,33.333333333333336,stimulus_1,0.15086216103879135,33.333333333333336,stimulus_1,0.6286439895629883,4,1.1149780750274658,
0168,39,7,716.6666666666667,33.333333333333336,stimulus_0,0.1478328832685582,33.333333333333336,stimulus_0,0.6236579418182373,4,1.2927119731903076,
0168,0,8,666.6666666666667,33.333333333333336,stimulus_1,0.4,33.333333333333336,stimulus_1,0.5655930042266846,4,0.45035386085510254,
0168,1,8,641.6666666666667,33.333333333333336,stimulus_0,0.2509879745459487,33.333333333333336,stimulus_0,0.4945549964904785,4,0.5801301002502441,
0168,2,8,508.33333333333337,33.333333333333336,stimulus_0,0.15302949805965513,33.333333333333336,stimulus_0,0.45765018463134766,4,0.5979530811309814,
0168,3,8,625.0,33.333333333333336,stimulus_1,0.07447047493079645,33.333333333333336,stimulus_0,2.6491990089416504,2,1.3204989433288574,
0168,4,8,541.6666666666667,33.333333333333336,stimulus_1,0.19116438799299137,33.333333333333336,stimulus_1,0.5908868312835693,3,0.962806224822998,
0168,5,8,633.3333333333334,33.333333333333336,stimulus_1,0.15879956701154668,33.333333333333336,stimulus_1,0.6029400825500488,3,1.0712080001831055,
0168,6,8,625.0,33.333333333333336,stimulus_0,0.1332385462073028,33.333333333333336,stimulus_0,0.618319034576416,3,1.2659220695495605,
0168,7,8,591.6666666666667,33.333333333333336,stimulus_0,0.11113684036651211,33.333333333333336,stimulus_0,0.6755850315093994,2,0.933905839920044,
0168,8,8,558.3333333333334,33.333333333333336,stimulus_1,0.09207196720633948,33.333333333333336,stimulus_1,1.0661039352416992,3,0.956902027130127,
0168,9,8,675.0,33.333333333333336,stimulus_1,0.07481368503589986,33.333333333333336,stimulus_1,0.8266439437866211,3,0.9909567832946777,
0168,10,8,608.3333333333334,33.333333333333336,stimulus_0,0.058608724895684416,33.333333333333336,stimulus_1,1.9961481094360352,1,1.8825469017028809,
0168,11,8,591.6666666666667,33.333333333333336,stimulus_0,0.09537615265500204,33.333333333333336,stimulus_1,2.1204779148101807,1,1.8249669075012207,
0168,12,8,716.6666666666667,33.333333333333336,stimulus_0,0.12490120707272723,33.333333333333336,stimulus_0,1.0947809219360352,2,0.8373310565948486,
0168,13,8,566.6666666666667,33.333333333333336,stimulus_0,0.11492518448372879,33.333333333333336,stimulus_1,4.440402030944824,2,0.9856529235839844,
0168,14,8,691.6666666666667,33.333333333333336,stimulus_1,0.13759061640951697,33.333333333333336,stimulus_1,0.8688139915466309,2,0.8835470676422119,
0168,15,8,725.0,33.333333333333336,stimulus_1,0.12954651279780482,33.333333333333336,stimulus_0,0.9207370281219482,3,1.1846139430999756,
0168,16,8,683.3333333333334,33.333333333333336,stimulus_0,0.14973822856919766,33.333333333333336,stimulus_0,0.6784729957580566,3,0.9248130321502686,
0168,17,8,675.0,33.333333333333336,stimulus_1,0.14268913171445285,33.333333333333336,stimulus_1,1.2915520668029785,2,1.9261071681976318,
0168,18,8,550.0,33.333333333333336,stimulus_0,0.1360101530783811,33.333333333333336,stimulus_1,1.1846699714660645,1,1.3867149353027344,
0168,19,8,675.0,33.333333333333336,stimulus_1,0.15302476536127532,33.333333333333336,stimulus_1,0.610630989074707,3,2.4902989864349365,
0168,20,8,608.3333333333334,33.333333333333336,stimulus_1,0.1470517144268771,33.333333333333336,stimulus_1,0.8798007965087891,3,1.1182548999786377,
0168,21,8,733.3333333333334,33.333333333333336,stimulus_1,0.14169582021769106,33.333333333333336,stimulus_1,1.4508190155029297,2,2.0102040767669678,
0168,22,8,725.0,33.333333333333336,stimulus_0,0.13647246631080912,33.333333333333336,stimulus_0,0.876453161239624,3,1.0326769351959229,
0168,23,8,608.3333333333334,33.333333333333336,stimulus_0,0.13172115443460652,33.333333333333336,stimulus_0,1.9465961456298828,2,0.9142460823059082,
0168,24,8,541.6666666666667,33.333333333333336,stimulus_1,0.12702006315179076,33.333333333333336,stimulus_1,0.7551569938659668,3,1.098341941833496,
0168,25,8,725.0,33.333333333333336,stimulus_0,0.12271635422775479,33.333333333333336,stimulus_0,0.6251840591430664,3,1.0296170711517334,
0168,26,8,733.3333333333334,33.333333333333336,stimulus_1,0.11839390436370367,33.333333333333336,stimulus_1,1.0736241340637207,3,2.1633710861206055,
0168,27,8,608.3333333333334,33.333333333333336,stimulus_0,0.11441823990805272,33.333333333333336,stimulus_0,0.8285501003265381,2,3.3776350021362305,
0168,28,8,500.00000000000006,33.333333333333336,stimulus_0,0.11041285773431925,33.333333333333336,stimulus_0,0.7172160148620605,2,2.947032928466797,
0168,29,8,525.0,33.333333333333336,stimulus_1,0.10665276275475116,33.333333333333336,stimulus_1,0.6396529674530029,2,1.1347508430480957,
0168,30,8,750.0,33.333333333333336,stimulus_1,0.10314692845797685,33.333333333333336,stimulus_1,0.7981810569763184,2,2.1838409900665283,
0168,31,8,683.3333333333334,33.333333333333336,stimulus_0,0.09955494098809065,33.333333333333336,stimulus_0,1.691673994064331,2,1.865144968032837,
0168,32,8,675.0,33.333333333333336,stimulus_1,0.096186476126285,33.333333333333336,stimulus_1,1.1293981075286865,2,1.3286089897155762,
0168,33,8,633.3333333333334,33.333333333333336,stimulus_1,0.09301165446118992,33.333333333333336,stimulus_1,2.4061341285705566,1,1.8970539569854736,
0168,34,8,741.6666666666667,33.333333333333336,stimulus_0,0.08973142991231509,33.333333333333336,stimulus_0,1.7024328708648682,1,1.7475171089172363,
0168,35,8,650.0,33.333333333333336,stimulus_0,0.08662755985965165,33.333333333333336,stimulus_1,1.2764551639556885,1,2.4457590579986572,
0168,36,8,541.6666666666667,33.333333333333336,stimulus_0,0.09512279677907903,33.333333333333336,stimulus_0,1.208940029144287,2,1.5298171043395996,
0168,37,8,600.0,33.333333333333336,stimulus_1,0.09234477065420904,33.333333333333336,stimulus_1,3.1026480197906494,1,2.3035359382629395,
0168,38,8,541.6666666666667,33.333333333333336,stimulus_1,0.08944981374305672,33.333333333333336,stimulus_1,4.926707983016968,1,1.474142074584961,
0168,39,8,533.3333333333334,33.333333333333336,stimulus_0,0.08671186665927805,33.333333333333336,stimulus_0,0.731377124786377,2,2.2518398761749268,
0168,0,9,508.33333333333337,33.333333333333336,stimulus_1,0.4,33.333333333333336,stimulus_1,0.7766170501708984,4,0.6276111602783203,
0168,1,9,550.0,33.333333333333336,stimulus_0,0.2509879745459487,33.333333333333336,stimulus_0,0.5313510894775391,4,0.8337130546569824,
0168,2,9,675.0,33.333333333333336,stimulus_0,0.15302949805965513,33.333333333333336,stimulus_0,1.9722189903259277,2,0.924609899520874,
0168,3,9,600.0,33.333333333333336,stimulus_1,0.07447047493079645,33.333333333333336,stimulus_1,2.1057419776916504,2,1.4297699928283691,
0168,4,9,500.00000000000006,33.333333333333336,stimulus_0,0.01,33.333333333333336,stimulus_1,1.66457200050354,1,0.9073059558868408,
0168,5,9,700.0,33.333333333333336,stimulus_1,0.1153395389209863,33.333333333333336,stimulus_0,0.8190629482269287,1,0.9696550369262695,
0168,6,9,666.6666666666667,33.333333333333336,stimulus_1,0.1846424342245247,33.333333333333336,stimulus_1,1.130115032196045,2,0.689262866973877,
0168,7,9,641.6666666666667,33.333333333333336,stimulus_0,0.16204061714958462,33.333333333333336,stimulus_0,1.2971630096435547,3,1.110623836517334,
0168,8,9,541.6666666666667,33.333333333333336,stimulus_1,0.14371252815552488,33.333333333333336,stimulus_1,1.554408073425293,1,2.090578079223633,
0168,9,9,716.6666666666667,33.333333333333336,stimulus_1,0.1278842251972933,33.333333333333336,stimulus_1,0.8957099914550781,2,0.9766891002655029,
0168,10,9,550.0,33.333333333333336,stimulus_0,0.11449269270525125,33.333333333333336,stimulus_0,0.6074960231781006,3,1.8208801746368408,
0168,11,9,508.33333333333337,33.333333333333336,stimulus_0,0.10196907907317859,33.333333333333336,stimulus_1,1.005492925643921,2,1.1856729984283447,
0168,12,9,533.3333333333334,33.333333333333336,stimulus_1,0.13043107634361584,33.333333333333336,stimulus_0,1.7727971076965332,2,1.570228099822998,
0168,13,9,666.6666666666667,33.333333333333336,stimulus_0,0.15585966325790437,33.333333333333336,stimulus_0,0.931535005569458,2,1.1447548866271973,
0168,14,9,608.3333333333334,33.333333333333336,stimulus_0,0.14720940870953264,33.333333333333336,stimulus_0,0.722041130065918,2,2.1579298973083496,
0168,15,9,741.6666666666667,33.333333333333336,stimulus_1,0.13925699261300867,33.333333333333336,stimulus_1,0.8519489765167236,2,1.152338981628418,
0168,16,9,650.0,33.333333333333336,stimulus_0,0.13186666206005204,33.333333333333336,stimulus_0,0.7386460304260254,2,0.9677238464355469,
0168,17,9,558.3333333333334,33.333333333333336,stimulus_0,0.12487521009085983,33.333333333333336,stimulus_0,0.567559003829956,2,1.275089979171753,
0168,18,9,750.0,33.333333333333336,stimulus_1,0.11820308447889122,33.333333333333336,stimulus_1,0.9985229969024658,2,1.4266688823699951,
0168,19,9,525.0,33.333333333333336,stimulus_1,0.11222347701396473,33.333333333333336,stimulus_0,0.8825259208679199,1,2.1184070110321045,
0168,20,9,675.0,33.333333333333336,stimulus_1,0.12743954322547119,33.333333333333336,stimulus_1,1.1364519596099854,2,0.9570879936218262,
0168,21,9,583.3333333333334,33.333333333333336,stimulus_1,0.12216003512105456,33.333333333333336,stimulus_1,0.9780440330505371,2,1.2528159618377686,
0168,22,9,500.00000000000006,33.333333333333336,stimulus_0,0.11696596419247302,33.333333333333336,stimulus_0,1.5505118370056152,1,1.7655699253082275,
0168,23,9,733.3333333333334,33.333333333333336,stimulus_0,0.11222833438473517,33.333333333333336,stimulus_0,3.4909489154815674,1,1.1259169578552246,
0168,24,9,500.00000000000006,33.333333333333336,stimulus_1,0.10750504559237306,33.333333333333336,stimulus_1,0.8004758358001709,2,1.3239870071411133,
0168,25,9,558.3333333333334,33.333333333333336,stimulus_0,0.10316823836572792,33.333333333333336,stimulus_1,0.8985011577606201,1,1.1752400398254395,
0168,26,9,516.6666666666667,33.333333333333336,stimulus_0,0.11448003851626787,33.333333333333336,stimulus_0,2.0997018814086914,1,1.2334389686584473,
0168,27,9,575.0,33.333333333333336,stimulus_1,0.11030174423031441,33.333333333333336,stimulus_1,0.7734251022338867,1,1.4074690341949463,
0168,28,9,600.0,33.333333333333336,stimulus_0,0.10640030369519082,33.333333333333336,stimulus_1,2.170097827911377,1,1.9896340370178223,
0168,29,9,525.0,33.333333333333336,stimulus_1,0.11689185780943129,33.333333333333336,stimulus_0,2.544095039367676,1,2.933677911758423,
0168,30,9,650.0,33.333333333333336,stimulus_0,0.12695030900086873,33.333333333333336,stimulus_0,1.387571096420288,2,0.8485770225524902,
0168,31,9,525.0,33.333333333333336,stimulus_1,0.12357002676432582,33.333333333333336,stimulus_1,2.373655080795288,1,1.749798059463501,
0168,32,9,616.6666666666667,33.333333333333336,stimulus_0,0.12011836398228964,33.333333333333336,stimulus_0,0.8342950344085693,2,1.006303071975708,
0168,33,9,583.3333333333334,33.333333333333336,stimulus_1,0.11688012716818197,33.333333333333336,stimulus_1,0.9266049861907959,1,3.380497932434082,
0168,34,9,608.3333333333334,33.333333333333336,stimulus_1,0.11384817109380457,33.333333333333336,stimulus_1,1.1902709007263184,1,1.4599850177764893,
0168,35,9,583.3333333333334,33.333333333333336,stimulus_0,0.11073848897560468,33.333333333333336,stimulus_0,0.8717620372772217,2,1.7175920009613037,
0168,36,9,566.6666666666667,33.333333333333336,stimulus_1,0.10776539956960773,33.333333333333336,stimulus_1,2.986863136291504,1,2.7945590019226074,
0168,37,9,516.6666666666667,33.333333333333336,stimulus_1,0.1049851236816483,33.333333333333336,stimulus_1,0.8495519161224365,2,0.7459630966186523,
0168,38,9,575.0,33.333333333333336,stimulus_0,0.10214509829565066,33.333333333333336,stimulus_0,0.676055908203125,2,1.0104820728302002,
0168,39,9,500.00000000000006,33.333333333333336,stimulus_0,0.09937351442279885,33.333333333333336,stimulus_1,1.668172836303711,1,3.0945639610290527,
