subject,trial_number,staircase_number,fixation_duration_ms,target_duration_ms,target_type,target_contrast,mask_duration_ms,objective_response,objective_response_time_ms,subjective_response,subjective_response_time_ms
0169,0,0,716.6666666666667,33.333333333333336,stimulus_1,0.4,33.333333333333336,stimulus_1,2.1499180793762207,1,2.160106897354126,
0169,1,0,700.0,33.333333333333336,stimulus_1,0.2509879745459487,33.333333333333336,stimulus_1,3.3385488986968994,1,1.4889519214630127,
0169,2,0,566.6666666666667,33.333333333333336,stimulus_0,0.15302949805965513,33.333333333333336,stimulus_1,1.027540922164917,1,0.9218888282775879,
0169,3,0,733.3333333333334,33.333333333333336,stimulus_0,0.28633771842292194,33.333333333333336,stimulus_1,2.1115739345550537,1,1.7674448490142822,
0169,4,0,575.0,33.333333333333336,stimulus_0,0.37418168665186063,33.333333333333336,stimulus_0,1.2694289684295654,2,2.939059019088745,
0169,5,0,550.0,33.333333333333336,stimulus_1,0.3442428864715845,33.333333333333336,stimulus_1,0.9292511940002441,2,2.788451910018921,
0169,6,0,733.3333333333334,33.333333333333336,stimulus_0,0.3215665728520403,33.333333333333336,stimulus_0,1.453315019607544,3,0.9954221248626709,
0169,7,0,750.0,33.333333333333336,stimulus_1,0.30330225000389255,33.333333333333336,stimulus_1,1.1494839191436768,2,2.245709180831909,
0169,8,0,616.6666666666667,33.333333333333336,stimulus_1,0.2874662315002713,33.333333333333336,stimulus_1,1.097546100616455,2,2.6445701122283936,
0169,9,0,541.6666666666667,33.333333333333336,stimulus_0,0.27397153309501754,33.333333333333336,stimulus_0,1.027791976928711,3,1.3289241790771484,
0169,10,0,725.0,33.333333333333336,stimulus_0,0.2612354420600977,33.333333333333336,stimulus_0,1.0496201515197754,3,1.1578919887542725,
0169,11,0,716.6666666666667,33.333333333333336,stimulus_1,0.24967589162739168,33.333333333333336,stimulus_1,1.5116560459136963,2,2.337562084197998,
0169,12,0,700.0,33.333333333333336,stimulus_1,0.2389509898703528,33.333333333333336,stimulus_1,2.19183087348938,3,2.345188856124878,
0169,13,0,716.6666666666667,33.333333333333336,stimulus_0,0.22880901184381455,33.333333333333336,stimulus_0,1.0792279243469238,3,2.4706759452819824,
0169,14,0,733.3333333333334,33.333333333333336,stimulus_1,0.21905296030858157,33.333333333333336,stimulus_1,1.1951789855957031,3,1.2394580841064453,
0169,15,0,500.00000000000006,33.333333333333336,stimulus_0,0.20951906017471467,33.333333333333336,stimulus_1,2.2882370948791504,2,4.069988965988159,
0169,16,0,733.3333333333334,33.333333333333336,stimulus_0,0.23359831226098138,33.333333333333336,stimulus_0,0.939018964767456,3,1.3790881633758545,
0169,17,0,750.0,33.333333333333336,stimulus_0,0.22622916682464753,33.333333333333336,stimulus_0,3.1181139945983887,3,0.9229331016540527,
0169,18,0,600.0,33.333333333333336,stimulus_1,0.21952030232473424,33.333333333333336,stimulus_1,3.1053271293640137,2,2.403263807296753,
0169,19,0,508.33333333333337,33.333333333333336,stimulus_1,0.21292191653183126,33.333333333333336,stimulus_1,0.8534481525421143,3,2.4627671241760254,
0169,20,0,550.0,33.333333333333336,stimulus_0,0.20635667951060038,33.333333333333336,stimulus_0,1.248871088027954,2,2.201498031616211,
0169,21,0,525.0,33.333333333333336,stimulus_0,0.20026668738481226,33.333333333333336,stimulus_1,3.7142369747161865,2,1.8405718803405762,
0169,22,0,750.0,33.333333333333336,stimulus_1,0.2163737515408541,33.333333333333336,stimulus_0,1.7400760650634766,3,1.8127892017364502,
0169,23,0,708.3333333333334,33.333333333333336,stimulus_1,0.2307269584804281,33.333333333333336,stimulus_1,1.343993902206421,2,2.0426101684570312,
0169,24,0,616.6666666666667,33.333333333333336,stimulus_1,0.22595747317491216,33.333333333333336,stimulus_1,3.8680710792541504,2,1.7291159629821777,
0169,25,0,675.0,33.333333333333336,stimulus_1,0.22153508607162223,33.333333333333336,stimulus_1,1.9315681457519531,3,1.6018109321594238,
0169,26,0,541.6666666666667,33.333333333333336,stimulus_0,0.21707046923165013,33.333333333333336,stimulus_0,1.534919023513794,3,1.035710096359253,
0169,27,0,616.6666666666667,33.333333333333336,stimulus_0,0.21292454617585385,33.333333333333336,stimulus_0,1.4703729152679443,4,0.8119750022888184,
0169,28,0,741.6666666666667,33.333333333333336,stimulus_1,0.20869581375016463,33.333333333333336,stimulus_1,1.804823875427246,2,1.3808870315551758,
0169,29,0,625.0,33.333333333333336,stimulus_0,0.20473831614598786,33.333333333333336,stimulus_0,3.273500919342041,3,1.8218400478363037,
0169,30,0,700.0,33.333333333333336,stimulus_1,0.20072235285922235,33.333333333333336,stimulus_1,2.028923988342285,1,0.48584699630737305,
0169,31,0,508.33333333333337,33.333333333333336,stimulus_0,0.19686945701022987,33.333333333333336,stimulus_0,1.7861278057098389,3,2.600965976715088,
0169,32,0,725.0,33.333333333333336,stimulus_0,0.1932465159165968,33.333333333333336,stimulus_0,1.1823711395263672,3,0.8425898551940918,
0169,33,0,675.0,33.333333333333336,stimulus_0,0.18950045081723912,33.333333333333336,stimulus_0,1.9327540397644043,3,0.8664278984069824,
0169,34,0,708.3333333333334,33.333333333333336,stimulus_1,0.18591963061427608,33.333333333333336,stimulus_1,2.046229839324951,1,0.7906548976898193,
0169,35,0,508.33333333333337,33.333333333333336,stimulus_1,0.18251551273766498,33.333333333333336,stimulus_1,1.459719181060791,1,0.7116091251373291,
0169,36,0,558.3333333333334,33.333333333333336,stimulus_1,0.17895667619554084,33.333333333333336,stimulus_1,1.0346548557281494,3,1.7467279434204102,
0169,37,0,608.3333333333334,33.333333333333336,stimulus_0,0.1755488796063624,33.333333333333336,stimulus_0,1.290281057357788,3,1.6662559509277344,
0169,38,0,558.3333333333334,33.333333333333336,stimulus_1,0.17228508322016994,33.333333333333336,stimulus_1,0.977942943572998,3,0.9081888198852539,
0169,39,0,683.3333333333334,33.333333333333336,stimulus_0,0.16884641072715267,33.333333333333336,stimulus_0,1.8011651039123535,2,1.183441162109375,
0169,0,1,691.6666666666667,33.333333333333336,stimulus_0,0.4,33.333333333333336,stimulus_0,2.0977699756622314,2,2.1288671493530273,
0169,1,1,716.6666666666667,33.333333333333336,stimulus_0,0.2509879745459487,33.333333333333336,stimulus_0,1.138746976852417,3,0.5715808868408203,
0169,2,1,741.6666666666667,33.333333333333336,stimulus_1,0.15302949805965513,33.333333333333336,stimulus_1,2.0451409816741943,1,0.5405659675598145,
0169,3,1,641.6666666666667,33.333333333333336,stimulus_1,0.07447047493079645,33.333333333333336,stimulus_1,2.0173869132995605,2,1.7387959957122803,
0169,4,1,725.0,33.333333333333336,stimulus_0,0.01,33.333333333333336,stimulus_0,2.6792478561401367,2,1.6351449489593506,
0169,5,1,550.0,33.333333333333336,stimulus_1,0.01,33.333333333333336,stimulus_1,2.634589910507202,1,0.8681387901306152,
0169,6,1,600.0,33.333333333333336,stimulus_0,0.01,33.333333333333336,stimulus_1,3.329530954360962,1,0.6451849937438965,
0169,7,1,716.6666666666667,33.333333333333336,stimulus_1,0.038220555504322185,33.333333333333336,stimulus_0,2.8417840003967285,1,0.798677921295166,
0169,8,1,725.0,33.333333333333336,stimulus_0,0.08909752170843621,33.333333333333336,stimulus_0,1.6397318840026855,2,1.2015371322631836,
0169,9,1,608.3333333333334,33.333333333333336,stimulus_1,0.07282427143849363,33.333333333333336,stimulus_1,2.6721999645233154,2,4.9534690380096436,
0169,10,1,525.0,33.333333333333336,stimulus_0,0.05847936416164412,33.333333333333336,stimulus_0,1.355694055557251,2,2.7149300575256348,
0169,11,1,541.6666666666667,33.333333333333336,stimulus_1,0.04619278082150502,33.333333333333336,stimulus_1,2.6752841472625732,2,2.6890029907226562,
0169,12,1,508.33333333333337,33.333333333333336,stimulus_1,0.03532451902297157,33.333333333333336,stimulus_0,2.105402946472168,1,0.7842750549316406,
0169,13,1,716.6666666666667,33.333333333333336,stimulus_0,0.06275404063191575,33.333333333333336,stimulus_0,1.007875919342041,2,2.3381459712982178,
0169,14,1,583.3333333333334,33.333333333333336,stimulus_0,0.05358334420770505,33.333333333333336,stimulus_1,1.6606078147888184,1,0.5337061882019043,
0169,15,1,725.0,33.333333333333336,stimulus_1,0.07507070497546192,33.333333333333336,stimulus_1,1.5893001556396484,2,0.8930549621582031,
0169,16,1,691.6666666666667,33.333333333333336,stimulus_0,0.06760589316751464,33.333333333333336,stimulus_0,1.0244920253753662,3,0.6196620464324951,
0169,17,1,625.0,33.333333333333336,stimulus_1,0.06062100195015896,33.333333333333336,stimulus_1,1.5368809700012207,2,2.848702907562256,
0169,18,1,633.3333333333334,33.333333333333336,stimulus_1,0.054011573637945176,33.333333333333336,stimulus_1,1.3652088642120361,3,1.3110439777374268,
0169,19,1,591.6666666666667,33.333333333333336,stimulus_0,0.047666241860991554,33.333333333333336,stimulus_1,2.4430530071258545,1,0.5321078300476074,
0169,20,1,625.0,33.333333333333336,stimulus_1,0.06362086386212912,33.333333333333336,stimulus_1,2.9938981533050537,2,1.2053008079528809,
0169,21,1,725.0,33.333333333333336,stimulus_0,0.05797893350476685,33.333333333333336,stimulus_0,2.485182046890259,1,0.613671064376831,
0169,22,1,641.6666666666667,33.333333333333336,stimulus_0,0.05288829310609161,33.333333333333336,stimulus_1,1.8234210014343262,1,0.5589711666107178,
0169,23,1,691.6666666666667,33.333333333333336,stimulus_1,0.06595515051759238,33.333333333333336,stimulus_0,2.70294189453125,2,1.5928471088409424,
0169,24,1,733.3333333333334,33.333333333333336,stimulus_1,0.07915439331402557,33.333333333333336,stimulus_1,2.743666172027588,2,2.0717968940734863,
0169,25,1,550.0,33.333333333333336,stimulus_0,0.07465126464509331,33.333333333333336,stimulus_0,1.2045369148254395,2,2.275611162185669,
0169,26,1,600.0,33.333333333333336,stimulus_1,0.07017931034280028,33.333333333333336,stimulus_0,3.8777878284454346,1,0.6513960361480713,
0169,27,1,600.0,33.333333333333336,stimulus_0,0.08145008076304217,33.333333333333336,stimulus_1,1.8293890953063965,1,0.9410049915313721,
0169,28,1,550.0,33.333333333333336,stimulus_1,0.09231274052231536,33.333333333333336,stimulus_1,2.9023540019989014,1,1.709251880645752,
0169,29,1,500.00000000000006,33.333333333333336,stimulus_1,0.08830836764299532,33.333333333333336,stimulus_0,2.7296721935272217,1,0.9186420440673828,
0169,30,1,516.6666666666667,33.333333333333336,stimulus_0,0.09868327310590075,33.333333333333336,stimulus_0,1.4633638858795166,2,4.016361951828003,
0169,31,1,708.3333333333334,33.333333333333336,stimulus_0,0.09507912399283042,33.333333333333336,stimulus_0,1.4499638080596924,2,3.317193031311035,
0169,32,1,675.0,33.333333333333336,stimulus_0,0.0916928745698169,33.333333333333336,stimulus_0,2.623986005783081,2,2.1113100051879883,
0169,33,1,750.0,33.333333333333336,stimulus_1,0.08825871716122147,33.333333333333336,stimulus_1,1.6625399589538574,3,1.0132720470428467,
0169,34,1,550.0,33.333333333333336,stimulus_0,0.08508808644997062,33.333333333333336,stimulus_0,3.3438711166381836,2,1.4849669933319092,
0169,35,1,508.33333333333337,33.333333333333336,stimulus_1,0.08208566514664234,33.333333333333336,stimulus_1,3.7395670413970947,1,0.7465441226959229,
0169,36,1,608.3333333333334,33.333333333333336,stimulus_1,0.07899814852303477,33.333333333333336,stimulus_1,1.107327938079834,2,2.196479082107544,
0169,37,1,691.6666666666667,33.333333333333336,stimulus_0,0.07612728994165391,33.333333333333336,stimulus_0,2.7674081325531006,2,1.6562449932098389,
0169,38,1,516.6666666666667,33.333333333333336,stimulus_1,0.07341300345676088,33.333333333333336,stimulus_1,2.8370859622955322,2,2.1637439727783203,
0169,39,1,591.6666666666667,33.333333333333336,stimulus_0,0.07060941224900508,33.333333333333336,stimulus_1,2.973450183868408,1,2.3808350563049316,
0169,0,2,658.3333333333334,33.333333333333336,stimulus_1,0.4,33.333333333333336,stimulus_0,3.072422981262207,1,2.0573129653930664,
0169,1,2,708.3333333333334,33.333333333333336,stimulus_0,0.6431098143584852,33.333333333333336,stimulus_0,1.2945139408111572,3,0.5660672187805176,
0169,2,2,683.3333333333334,33.333333333333336,stimulus_0,0.5620020274253117,33.333333333333336,stimulus_0,1.8053081035614014,4,0.44232606887817383,
0169,3,2,700.0,33.333333333333336,stimulus_1,0.5133116582634316,33.333333333333336,stimulus_1,1.6505770683288574,4,0.5625879764556885,
0169,4,2,725.0,33.333333333333336,stimulus_1,0.47731000462160866,33.333333333333336,stimulus_1,0.8170771598815918,4,0.5496149063110352,
0169,5,2,666.6666666666667,33.333333333333336,stimulus_0,0.4492323609778033,33.333333333333336,stimulus_0,0.7088100910186768,4,0.4236900806427002,
0169,6,2,683.3333333333334,33.333333333333336,stimulus_0,0.42493891836841796,33.333333333333336,stimulus_0,0.6085631847381592,4,0.42748308181762695,
0169,7,2,525.0,33.333333333333336,stimulus_1,0.40244342561762325,33.333333333333336,stimulus_1,0.6973528861999512,4,0.5159430503845215,
0169,8,2,616.6666666666667,33.333333333333336,stimulus_1,0.3818376435872739,33.333333333333336,stimulus_1,0.7097790241241455,4,0.5276930332183838,
0169,9,2,550.0,33.333333333333336,stimulus_1,0.36197507359786474,33.333333333333336,stimulus_1,1.6936089992523193,4,0.6210119724273682,
0169,10,2,541.6666666666667,33.333333333333336,stimulus_0,0.3418060980871992,33.333333333333336,stimulus_0,0.6704611778259277,4,0.47911715507507324,
0169,11,2,650.0,33.333333333333336,stimulus_0,0.3200752597336642,33.333333333333336,stimulus_0,0.884943962097168,4,0.42383408546447754,
0169,12,2,666.6666666666667,33.333333333333336,stimulus_1,0.29447109728475834,33.333333333333336,stimulus_1,0.8923759460449219,4,0.4948859214782715,
0169,13,2,725.0,33.333333333333336,stimulus_1,0.2572913155279589,33.333333333333336,stimulus_1,0.8031799793243408,4,0.559441089630127,
0169,14,2,541.6666666666667,33.333333333333336,stimulus_0,0.1963326137101838,33.333333333333336,stimulus_0,0.6091630458831787,4,0.4671199321746826,
0169,15,2,633.3333333333334,33.333333333333336,stimulus_0,0.1203446614397004,33.333333333333336,stimulus_0,0.8299751281738281,4,0.4251079559326172,
0169,16,2,750.0,33.333333333333336,stimulus_0,0.047592402020275704,33.333333333333336,stimulus_0,0.9451370239257812,3,1.2996010780334473,
0169,17,2,500.00000000000006,33.333333333333336,stimulus_1,0.01,33.333333333333336,stimulus_0,0.9847679138183594,3,0.44623303413391113,
0169,18,2,616.6666666666667,33.333333333333336,stimulus_1,0.09727053882285869,33.333333333333336,stimulus_1,0.7326688766479492,4,0.5436301231384277,
0169,19,2,641.6666666666667,33.333333333333336,stimulus_0,0.070592142328962,33.333333333333336,stimulus_0,0.6919369697570801,4,0.49373412132263184,
0169,20,2,625.0,33.333333333333336,stimulus_0,0.048540131151609656,33.333333333333336,stimulus_0,1.4206459522247314,3,0.9063019752502441,
0169,21,2,616.6666666666667,33.333333333333336,stimulus_1,0.029915560532980112,33.333333333333336,stimulus_0,0.8871240615844727,3,0.5119509696960449,
0169,22,2,533.3333333333334,33.333333333333336,stimulus_0,0.07133506635673598,33.333333333333336,stimulus_0,0.7933359146118164,4,0.46317005157470703,
0169,23,2,725.0,33.333333333333336,stimulus_1,0.05805992600068144,33.333333333333336,stimulus_1,2.486811876296997,3,1.1013681888580322,
0169,24,2,658.3333333333334,33.333333333333336,stimulus_1,0.046515141606076726,33.333333333333336,stimulus_0,1.7859010696411133,3,2.40873122215271,
0169,25,2,741.6666666666667,33.333333333333336,stimulus_1,0.07480551044799372,33.333333333333336,stimulus_0,2.3092899322509766,3,0.7148799896240234,
0169,26,2,533.3333333333334,33.333333333333336,stimulus_0,0.0988431548446867,33.333333333333336,stimulus_0,0.8651289939880371,4,0.3878669738769531,
0169,27,2,750.0,33.333333333333336,stimulus_0,0.09017419278596833,33.333333333333336,stimulus_0,0.6294670104980469,4,0.40476202964782715,
0169,28,2,700.0,33.333333333333336,stimulus_0,0.08226215572663886,33.333333333333336,stimulus_0,0.5645060539245605,4,0.40346288681030273,
0169,29,2,691.6666666666667,33.333333333333336,stimulus_1,0.07487384382143286,33.333333333333336,stimulus_0,1.960792064666748,4,0.6413660049438477,
0169,30,2,575.0,33.333333333333336,stimulus_0,0.09244807915607639,33.333333333333336,stimulus_0,1.0636439323425293,3,0.802433967590332,
0169,31,2,683.3333333333334,33.333333333333336,stimulus_1,0.08595475789805046,33.333333333333336,stimulus_1,1.023017168045044,3,0.8043861389160156,
0169,32,2,550.0,33.333333333333336,stimulus_0,0.08014070937687295,33.333333333333336,stimulus_0,0.9221100807189941,4,1.122809886932373,
0169,33,2,666.6666666666667,33.333333333333336,stimulus_1,0.07455304092417936,33.333333333333336,stimulus_1,0.7362620830535889,4,0.516165018081665,
0169,34,2,541.6666666666667,33.333333333333336,stimulus_0,0.06909093361886531,33.333333333333336,stimulus_0,0.6417579650878906,4,0.47715306282043457,
0169,35,2,500.00000000000006,33.333333333333336,stimulus_1,0.06412831797235796,33.333333333333336,stimulus_1,1.0629210472106934,4,1.2620501518249512,
0169,36,2,708.3333333333334,33.333333333333336,stimulus_0,0.05920446539981994,33.333333333333336,stimulus_0,0.773874044418335,4,0.4295990467071533,
0169,37,2,633.3333333333334,33.333333333333336,stimulus_0,0.054687589513568335,33.333333333333336,stimulus_0,0.6498439311981201,4,0.45534515380859375,
0169,38,2,625.0,33.333333333333336,stimulus_1,0.05017672126893691,33.333333333333336,stimulus_1,1.072052001953125,3,0.8907558917999268,
0169,39,2,575.0,33.333333333333336,stimulus_1,0.04597785576689206,33.333333333333336,stimulus_1,1.0630910396575928,3,0.7951221466064453,
0169,0,3,641.6666666666667,33.333333333333336,stimulus_0,0.4,33.333333333333336,stimulus_0,0.8991928100585938,4,1.1092650890350342,
0169,1,3,641.6666666666667,33.333333333333336,stimulus_1,0.2509879745459487,33.333333333333336,stimulus_1,1.1060199737548828,4,0.5541260242462158,
0169,2,3,550.0,33.333333333333336,stimulus_0,0.15302949805965513,33.333333333333336,stimulus_0,0.5960440635681152,4,0.43157505989074707,
0169,3,3,566.6666666666667,33.333333333333336,stimulus_1,0.07447047493079645,33.333333333333336,stimulus_1,0.8237648010253906,4,0.5173740386962891,
0169,4,3,508.33333333333337,33.333333333333336,stimulus_1,0.01,33.333333333333336,stimulus_1,2.7703440189361572,3,1.4805269241333008,
0169,5,3,608.3333333333334,33.333333333333336,stimulus_0,0.01,33.333333333333336,stimulus_1,1.823026180267334,3,1.374384880065918,
0169,6,3,616.6666666666667,33.333333333333336,stimulus_1,0.07052923220481583,33.333333333333336,stimulus_1,0.6947078704833984,3,0.8183588981628418,
0169,7,3,691.6666666666667,33.333333333333336,stimulus_0,0.04657433209187717,33.333333333333336,stimulus_0,0.7218441963195801,4,1.441467046737671,
0169,8,3,508.33333333333337,33.333333333333336,stimulus_0,0.02673196139095757,33.333333333333336,stimulus_1,1.1451010704040527,3,1.1086759567260742,
0169,9,3,508.33333333333337,33.333333333333336,stimulus_1,0.07164077160331156,33.333333333333336,stimulus_1,0.7157800197601318,3,0.8106279373168945,
0169,10,3,558.3333333333334,33.333333333333336,stimulus_0,0.05739514180059857,33.333333333333336,stimulus_0,0.6518139839172363,4,0.36507511138916016,
0169,11,3,733.3333333333334,33.333333333333336,stimulus_1,0.045188024443374164,33.333333333333336,stimulus_1,0.931304931640625,3,0.7714321613311768,
0169,12,3,683.3333333333334,33.333333333333336,stimulus_0,0.03439185683395496,33.333333333333336,stimulus_0,1.691335916519165,3,0.49401211738586426,
0169,13,3,500.00000000000006,33.333333333333336,stimulus_1,0.023970080562048635,33.333333333333336,stimulus_1,0.8599929809570312,3,0.9268829822540283,
0169,14,3,608.3333333333334,33.333333333333336,stimulus_0,0.014380113975873132,33.333333333333336,stimulus_0,1.146287202835083,3,0.39379096031188965,
0169,15,3,541.6666666666667,33.333333333333336,stimulus_1,0.01,33.333333333333336,stimulus_1,0.8723490238189697,3,0.8008332252502441,
0169,16,3,616.6666666666667,33.333333333333336,stimulus_1,0.01,33.333333333333336,stimulus_1,1.4309298992156982,3,0.8171470165252686,
0169,17,3,675.0,33.333333333333336,stimulus_0,0.01,33.333333333333336,stimulus_0,2.703378915786743,2,2.008355140686035,
0169,18,3,525.0,33.333333333333336,stimulus_0,0.01,33.333333333333336,stimulus_1,2.7135679721832275,2,1.3703029155731201,
0169,19,3,508.33333333333337,33.333333333333336,stimulus_1,0.01,33.333333333333336,stimulus_1,3.952972888946533,2,0.7548549175262451,
0169,20,3,575.0,33.333333333333336,stimulus_0,0.01,33.333333333333336,stimulus_0,2.1178581714630127,2,2.193186044692993,
0169,21,3,633.3333333333334,33.333333333333336,stimulus_1,0.01,33.333333333333336,stimulus_0,1.5378508567810059,2,1.1065919399261475,
0169,22,3,566.6666666666667,33.333333333333336,stimulus_1,0.01120591532184223,33.333333333333336,stimulus_0,2.4427480697631836,2,0.9890449047088623,
0169,23,3,558.3333333333334,33.333333333333336,stimulus_0,0.02467730433258386,33.333333333333336,stimulus_0,1.5854740142822266,2,1.1539671421051025,
0169,24,3,625.0,33.333333333333336,stimulus_1,0.019773078835420344,33.333333333333336,stimulus_0,1.2169270515441895,3,0.6861999034881592,
0169,25,3,716.6666666666667,33.333333333333336,stimulus_0,0.03212143532445971,33.333333333333336,stimulus_0,3.707225799560547,2,1.0098319053649902,
0169,26,3,658.3333333333334,33.333333333333336,stimulus_1,0.027705773731082184,33.333333333333336,stimulus_1,1.0168399810791016,3,1.4015522003173828,
0169,27,3,725.0,33.333333333333336,stimulus_0,0.02365827219190758,33.333333333333336,stimulus_1,2.4391958713531494,2,0.5878639221191406,
0169,28,3,658.3333333333334,33.333333333333336,stimulus_0,0.03419889220812333,33.333333333333336,stimulus_0,3.4141409397125244,2,0.9557168483734131,
0169,29,3,566.6666666666667,33.333333333333336,stimulus_0,0.030249983982639006,33.333333333333336,stimulus_1,2.0249979496002197,2,0.623831033706665,
0169,30,3,541.6666666666667,33.333333333333336,stimulus_1,0.04028474601011839,33.333333333333336,stimulus_0,2.105334997177124,2,2.946526050567627,
0169,31,3,591.6666666666667,33.333333333333336,stimulus_1,0.050035480327463966,33.333333333333336,stimulus_0,3.4598329067230225,2,0.8641829490661621,
0169,32,3,583.3333333333334,33.333333333333336,stimulus_1,0.05958077779640747,33.333333333333336,stimulus_1,0.8498749732971191,3,0.8251769542694092,
0169,33,3,700.0,33.333333333333336,stimulus_0,0.0561958508578187,33.333333333333336,stimulus_1,2.6062989234924316,2,0.7114310264587402,
0169,34,3,608.3333333333334,33.333333333333336,stimulus_1,0.06545802426296354,33.333333333333336,stimulus_1,1.019564151763916,2,2.739314079284668,
0169,35,3,508.33333333333337,33.333333333333336,stimulus_0,0.06235489412394968,33.333333333333336,stimulus_0,1.2931101322174072,2,1.7905840873718262,
0169,36,3,708.3333333333334,33.333333333333336,stimulus_0,0.05917285915076459,33.333333333333336,stimulus_0,2.0554208755493164,2,1.2286159992218018,
0169,37,3,550.0,33.333333333333336,stimulus_1,0.05622145463802153,33.333333333333336,stimulus_0,1.0873448848724365,3,0.514225959777832,
0169,38,3,733.3333333333334,33.333333333333336,stimulus_1,0.06439595622980404,33.333333333333336,stimulus_1,0.9423980712890625,3,0.6898958683013916,
0169,39,3,716.6666666666667,33.333333333333336,stimulus_0,0.06148722948133828,33.333333333333336,stimulus_0,0.740772008895874,3,0.4776430130004883,
0169,0,4,625.0,33.333333333333336,stimulus_0,0.4,33.333333333333336,stimulus_0,0.9921901226043701,4,0.37144899368286133,
0169,1,4,533.3333333333334,33.333333333333336,stimulus_1,0.2509879745459487,33.333333333333336,stimulus_1,1.9726660251617432,3,0.8319969177246094,
0169,2,4,566.6666666666667,33.333333333333336,stimulus_1,0.15302949805965513,33.333333333333336,stimulus_1,0.8571610450744629,4,0.5463600158691406,
0169,3,4,516.6666666666667,33.333333333333336,stimulus_0,0.07447047493079645,33.333333333333336,stimulus_0,0.6119091510772705,4,0.428804874420166,
0169,4,4,558.3333333333334,33.333333333333336,stimulus_1,0.01,33.333333333333336,stimulus_1,0.89939284324646,3,0.9863858222961426,
0169,5,4,633.3333333333334,33.333333333333336,stimulus_0,0.01,33.333333333333336,stimulus_1,1.8598310947418213,2,2.002573013305664,
0169,6,4,658.3333333333334,33.333333333333336,stimulus_1,0.07052923220481583,33.333333333333336,stimulus_1,1.5183370113372803,2,0.5592010021209717,
0169,7,4,583.3333333333334,33.333333333333336,stimulus_0,0.04657433209187717,33.333333333333336,stimulus_1,1.107377052307129,3,0.7562768459320068,
0169,8,4,550.0,33.333333333333336,stimulus_1,0.0973886332928855,33.333333333333336,stimulus_1,1.1509311199188232,4,0.5932979583740234,
0169,9,4,533.3333333333334,33.333333333333336,stimulus_0,0.08148233627619228,33.333333333333336,stimulus_0,0.7215092182159424,4,0.4734988212585449,
0169,10,4,575.0,33.333333333333336,stimulus_0,0.06739350264530619,33.333333333333336,stimulus_0,0.5006458759307861,3,1.018117904663086,
0169,11,4,575.0,33.333333333333336,stimulus_1,0.055271501774670384,33.333333333333336,stimulus_1,0.7770888805389404,3,0.8165068626403809,
0169,12,4,575.0,33.333333333333336,stimulus_0,0.04451509075853055,33.333333333333336,stimulus_0,0.6417350769042969,3,0.4872608184814453,
0169,13,4,616.6666666666667,33.333333333333336,stimulus_0,0.03410021737666302,33.333333333333336,stimulus_0,0.6891911029815674,3,0.4280128479003906,
0169,14,4,500.00000000000006,33.333333333333336,stimulus_1,0.024489802822946438,33.333333333333336,stimulus_1,0.8259899616241455,3,0.9220900535583496,
0169,15,4,591.6666666666667,33.333333333333336,stimulus_1,0.01547631373721653,33.333333333333336,stimulus_1,1.1404571533203125,3,0.9604959487915039,
0169,16,4,675.0,33.333333333333336,stimulus_1,0.01,33.333333333333336,stimulus_0,0.8389229774475098,3,0.8888399600982666,
0169,17,4,666.6666666666667,33.333333333333336,stimulus_0,0.028474067281032522,33.333333333333336,stimulus_1,1.5354959964752197,2,0.8643231391906738,
0169,18,4,550.0,33.333333333333336,stimulus_1,0.04680145743059205,33.333333333333336,stimulus_1,0.9638168811798096,3,0.7586770057678223,
0169,19,4,733.3333333333334,33.333333333333336,stimulus_0,0.040679660353420355,33.333333333333336,stimulus_0,1.0285930633544922,3,0.5049660205841064,
0169,20,4,583.3333333333334,33.333333333333336,stimulus_1,0.034778703251698406,33.333333333333336,stimulus_1,0.9791479110717773,3,0.7137970924377441,
0169,21,4,633.3333333333334,33.333333333333336,stimulus_0,0.02903204960443967,33.333333333333336,stimulus_0,2.5740249156951904,2,1.1972670555114746,
0169,22,4,600.0,33.333333333333336,stimulus_1,0.023810561778243866,33.333333333333336,stimulus_1,2.530384063720703,2,1.8604538440704346,
0169,23,4,575.0,33.333333333333336,stimulus_0,0.018635943355959472,33.333333333333336,stimulus_0,2.1138598918914795,2,1.4905099868774414,
0169,24,4,500.00000000000006,33.333333333333336,stimulus_1,0.01389234810697032,33.333333333333336,stimulus_0,1.176941156387329,2,0.9250519275665283,
0169,25,4,741.6666666666667,33.333333333333336,stimulus_1,0.026038376526778817,33.333333333333336,stimulus_1,1.9983019828796387,2,0.5195519924163818,
0169,26,4,566.6666666666667,33.333333333333336,stimulus_0,0.02182130444388075,33.333333333333336,stimulus_0,2.3272299766540527,2,1.0801441669464111,
0169,27,4,633.3333333333334,33.333333333333336,stimulus_0,0.017575947873810394,33.333333333333336,stimulus_1,2.146507978439331,2,0.8660120964050293,
0169,28,4,658.3333333333334,33.333333333333336,stimulus_1,0.028686928075778106,33.333333333333336,stimulus_1,1.66890287399292,2,0.5441951751708984,
0169,29,4,566.6666666666667,33.333333333333336,stimulus_1,0.024918238082789756,33.333333333333336,stimulus_1,1.9738621711730957,2,0.536142110824585,
0169,30,4,750.0,33.333333333333336,stimulus_0,0.021124307078986382,33.333333333333336,stimulus_0,1.9837450981140137,2,0.9814081192016602,
0169,31,4,741.6666666666667,33.333333333333336,stimulus_0,0.01752148660400349,33.333333333333336,stimulus_1,1.6691322326660156,2,0.6339499950408936,
0169,32,4,583.3333333333334,33.333333333333336,stimulus_0,0.02707892463351863,33.333333333333336,stimulus_1,2.1182210445404053,2,0.4945359230041504,
0169,33,4,700.0,33.333333333333336,stimulus_1,0.03632189192280322,33.333333333333336,stimulus_0,2.298769950866699,2,0.9490950107574463,
0169,34,4,716.6666666666667,33.333333333333336,stimulus_0,0.04534084978096142,33.333333333333336,stimulus_0,1.1423940658569336,2,0.964026927947998,
0169,35,4,716.6666666666667,33.333333333333336,stimulus_1,0.042341544287987254,33.333333333333336,stimulus_1,1.9599530696868896,1,0.48717808723449707,
0169,36,4,600.0,33.333333333333336,stimulus_1,0.03924984228048156,33.333333333333336,stimulus_1,1.7990899085998535,1,0.48650097846984863,
0169,37,4,658.3333333333334,33.333333333333336,stimulus_1,0.0363658502960586,33.333333333333336,stimulus_1,1.3636040687561035,1,0.9425468444824219,
0169,38,4,675.0,33.333333333333336,stimulus_0,0.03364196446832879,33.333333333333336,stimulus_0,3.1346898078918457,1,0.5691928863525391,
0169,39,4,616.6666666666667,33.333333333333336,stimulus_0,0.03083172248879662,33.333333333333336,stimulus_1,2.0908241271972656,1,0.6035189628601074,
0169,0,5,533.3333333333334,33.333333333333336,stimulus_1,0.4,33.333333333333336,stimulus_1,1.1550841331481934,3,0.7159638404846191,
0169,1,5,550.0,33.333333333333336,stimulus_0,0.2509879745459487,33.333333333333336,stimulus_0,0.5719540119171143,4,0.5366170406341553,
0169,2,5,666.6666666666667,33.333333333333336,stimulus_1,0.15302949805965513,33.333333333333336,stimulus_1,0.7605080604553223,4,0.47742605209350586,
0169,3,5,641.6666666666667,33.333333333333336,stimulus_0,0.07447047493079645,33.333333333333336,stimulus_1,2.8847639560699463,2,1.3393449783325195,
0169,4,5,616.6666666666667,33.333333333333336,stimulus_1,0.19116438799299137,33.333333333333336,stimulus_1,0.7557919025421143,4,0.4922220706939697,
0169,5,5,741.6666666666667,33.333333333333336,stimulus_0,0.15879956701154668,33.333333333333336,stimulus_0,0.5327260494232178,4,0.3966190814971924,
0169,6,5,525.0,33.333333333333336,stimulus_0,0.1332385462073028,33.333333333333336,stimulus_0,0.5849521160125732,4,0.369844913482666,
0169,7,5,591.6666666666667,33.333333333333336,stimulus_1,0.11113684036651211,33.333333333333336,stimulus_1,0.7542469501495361,4,0.40654587745666504,
0169,8,5,700.0,33.333333333333336,stimulus_0,0.09207196720633948,33.333333333333336,stimulus_0,0.3023951053619385,4,0.3985919952392578,
0169,9,5,608.3333333333334,33.333333333333336,stimulus_0,0.07481368503589986,33.333333333333336,stimulus_0,0.4475100040435791,4,0.3410780429840088,
0169,10,5,591.6666666666667,33.333333333333336,stimulus_1,0.058608724895684416,33.333333333333336,stimulus_0,2.1345369815826416,3,0.5120141506195068,
0169,11,5,541.6666666666667,33.333333333333336,stimulus_1,0.09537615265500204,33.333333333333336,stimulus_1,0.7465660572052002,4,0.5328400135040283,
0169,12,5,500.00000000000006,33.333333333333336,stimulus_0,0.08469798786146354,33.333333333333336,stimulus_0,0.4698829650878906,4,0.3869469165802002,
0169,13,5,541.6666666666667,33.333333333333336,stimulus_1,0.07430537057761782,33.333333333333336,stimulus_1,0.6472060680389404,4,0.3764188289642334,
0169,14,5,608.3333333333334,33.333333333333336,stimulus_0,0.06468499237697461,33.333333333333336,stimulus_0,0.4413900375366211,4,0.37560200691223145,
0169,15,5,741.6666666666667,33.333333333333336,stimulus_1,0.05565000058195646,33.333333333333336,stimulus_1,0.5754227638244629,4,0.38896799087524414,
0169,16,5,541.6666666666667,33.333333333333336,stimulus_0,0.04760311480769103,33.333333333333336,stimulus_0,0.46395087242126465,4,0.34849095344543457,
0169,17,5,700.0,33.333333333333336,stimulus_1,0.03986315197902024,33.333333333333336,stimulus_1,0.5208680629730225,4,0.35665297508239746,
0169,18,5,691.6666666666667,33.333333333333336,stimulus_1,0.03232722767674506,33.333333333333336,stimulus_0,1.9268419742584229,3,0.38590502738952637,
0169,19,5,616.6666666666667,33.333333333333336,stimulus_0,0.05120236467368422,33.333333333333336,stimulus_0,0.5355939865112305,3,0.7527101039886475,
0169,20,5,516.6666666666667,33.333333333333336,stimulus_0,0.04495954295862231,33.333333333333336,stimulus_0,0.619952917098999,3,0.5814609527587891,
0169,21,5,566.6666666666667,33.333333333333336,stimulus_0,0.03885168414223861,33.333333333333336,stimulus_0,0.6467189788818359,3,0.39522814750671387,
0169,22,5,600.0,33.333333333333336,stimulus_1,0.03325314672248003,33.333333333333336,stimulus_1,0.6702699661254883,3,0.6170251369476318,
0169,23,5,533.3333333333334,33.333333333333336,stimulus_1,0.02767434466984625,33.333333333333336,stimulus_1,0.9028661251068115,3,0.5850939750671387,
0169,24,5,550.0,33.333333333333336,stimulus_1,0.022522785111008026,33.333333333333336,stimulus_1,1.1876578330993652,3,0.6354539394378662,
0169,25,5,641.6666666666667,33.333333333333336,stimulus_0,0.01732435835607632,33.333333333333336,stimulus_0,2.0141050815582275,3,0.4418959617614746,
0169,26,5,558.3333333333334,33.333333333333336,stimulus_0,0.012484990244040595,33.333333333333336,stimulus_1,0.8929579257965088,2,1.411505937576294,
0169,27,5,525.0,33.333333333333336,stimulus_1,0.025205984492571942,33.333333333333336,stimulus_1,0.8388991355895996,3,0.7377619743347168,
0169,28,5,508.33333333333337,33.333333333333336,stimulus_1,0.021029005342076912,33.333333333333336,stimulus_0,1.6250040531158447,2,1.7231040000915527,
0169,29,5,616.6666666666667,33.333333333333336,stimulus_0,0.03229419134049116,33.333333333333336,stimulus_0,1.701491117477417,2,1.388585090637207,
0169,30,5,500.00000000000006,33.333333333333336,stimulus_1,0.028305143205156647,33.333333333333336,stimulus_1,0.7124719619750977,2,1.5659301280975342,
0169,31,5,750.0,33.333333333333336,stimulus_0,0.024592902214868373,33.333333333333336,stimulus_1,2.44438099861145,2,0.5405290126800537,
0169,32,5,541.6666666666667,33.333333333333336,stimulus_1,0.0342423776571944,33.333333333333336,stimulus_1,0.8162209987640381,2,0.8919868469238281,
0169,33,5,725.0,33.333333333333336,stimulus_1,0.03067336601775178,33.333333333333336,stimulus_1,2.900177001953125,2,0.6616101264953613,
0169,34,5,733.3333333333334,33.333333333333336,stimulus_0,0.027272231580390383,33.333333333333336,stimulus_0,2.0831940174102783,2,2.5009608268737793,
0169,35,5,633.3333333333334,33.333333333333336,stimulus_0,0.024089758777574355,33.333333333333336,stimulus_1,2.0572009086608887,2,0.6168498992919922,
0169,36,5,700.0,33.333333333333336,stimulus_0,0.032531643670235866,33.333333333333336,stimulus_1,1.1134109497070312,1,0.4892139434814453,
0169,37,5,566.6666666666667,33.333333333333336,stimulus_1,0.04069501314491136,33.333333333333336,stimulus_1,1.763286828994751,1,0.6849210262298584,
0169,38,5,633.3333333333334,33.333333333333336,stimulus_1,0.03772541874327778,33.333333333333336,stimulus_0,2.1661791801452637,1,0.4684629440307617,
0169,39,5,516.6666666666667,33.333333333333336,stimulus_0,0.0456894300021255,33.333333333333336,stimulus_0,0.9670271873474121,1,1.3235499858856201,
0169,0,6,566.6666666666667,33.333333333333336,stimulus_1,0.4,33.333333333333336,stimulus_1,1.3751389980316162,3,1.1189301013946533,
0169,1,6,558.3333333333334,33.333333333333336,stimulus_0,0.2509879745459487,33.333333333333336,stimulus_0,0.4936201572418213,4,0.5042459964752197,
0169,2,6,625.0,33.333333333333336,stimulus_0,0.15302949805965513,33.333333333333336,stimulus_0,0.4590940475463867,4,0.3620181083679199,
0169,3,6,625.0,33.333333333333336,stimulus_1,0.07447047493079645,33.333333333333336,stimulus_1,0.7686498165130615,4,0.47316908836364746,
0169,4,6,658.3333333333334,33.333333333333336,stimulus_0,0.01,33.333333333333336,stimulus_0,1.5210611820220947,3,1.0755500793457031,
0169,5,6,583.3333333333334,33.333333333333336,stimulus_0,0.01,33.333333333333336,stimulus_1,0.8039641380310059,3,0.7352070808410645,
0169,6,6,708.3333333333334,33.333333333333336,stimulus_1,0.07052923220481583,33.333333333333336,stimulus_1,0.6320719718933105,3,0.7632629871368408,
0169,7,6,716.6666666666667,33.333333333333336,stimulus_1,0.04657433209187717,33.333333333333336,stimulus_1,0.7129018306732178,3,0.7459421157836914,
0169,8,6,608.3333333333334,33.333333333333336,stimulus_0,0.02673196139095757,33.333333333333336,stimulus_0,0.5245728492736816,3,0.40809011459350586,
0169,9,6,600.0,33.333333333333336,stimulus_1,0.01,33.333333333333336,stimulus_1,0.7115910053253174,3,0.6944248676300049,
0169,10,6,508.33333333333337,33.333333333333336,stimulus_0,0.01,33.333333333333336,stimulus_0,0.9693610668182373,2,1.482950210571289,
0169,11,6,683.3333333333334,33.333333333333336,stimulus_1,0.01,33.333333333333336,stimulus_1,0.7768838405609131,2,1.5180490016937256,
0169,12,6,641.6666666666667,33.333333333333336,stimulus_1,0.01,33.333333333333336,stimulus_1,0.759558916091919,2,0.5254240036010742,
0169,13,6,533.3333333333334,33.333333333333336,stimulus_1,0.01,33.333333333333336,stimulus_0,2.1939680576324463,2,0.8563787937164307,
0169,14,6,525.0,33.333333333333336,stimulus_0,0.01,33.333333333333336,stimulus_1,1.2230408191680908,2,0.5116231441497803,
0169,15,6,500.00000000000006,33.333333333333336,stimulus_0,0.025152928780669714,33.333333333333336,stimulus_1,1.2739651203155518,2,0.5346789360046387,
0169,16,6,583.3333333333334,33.333333333333336,stimulus_1,0.04650670585619432,33.333333333333336,stimulus_1,0.6218488216400146,3,0.7474689483642578,
0169,17,6,575.0,33.333333333333336,stimulus_0,0.03945753055655099,33.333333333333336,stimulus_1,1.7585349082946777,2,1.5844078063964844,
0169,18,6,750.0,33.333333333333336,stimulus_1,0.05752710341737621,33.333333333333336,stimulus_1,1.5056889057159424,3,1.1118998527526855,
0169,19,6,525.0,33.333333333333336,stimulus_0,0.0512939884697865,33.333333333333336,stimulus_1,1.5133519172668457,1,0.4066929817199707,
0169,20,6,716.6666666666667,33.333333333333336,stimulus_1,0.06718035926242166,33.333333333333336,stimulus_1,0.596228837966919,3,0.6733908653259277,
0169,21,6,683.3333333333334,33.333333333333336,stimulus_0,0.061606276435933416,33.333333333333336,stimulus_0,0.8686079978942871,3,0.4602029323577881,
0169,22,6,566.6666666666667,33.333333333333336,stimulus_0,0.05620713273029421,33.333333333333336,stimulus_0,1.6101760864257812,2,1.4530119895935059,
0169,23,6,508.33333333333337,33.333333333333336,stimulus_1,0.05130913019179795,33.333333333333336,stimulus_1,0.7673490047454834,3,0.7228989601135254,
0169,24,6,741.6666666666667,33.333333333333336,stimulus_1,0.04649986793634037,33.333333333333336,stimulus_1,0.8544189929962158,3,0.888646125793457,
0169,25,6,525.0,33.333333333333336,stimulus_0,0.042100242195038384,33.333333333333336,stimulus_1,1.4602138996124268,2,1.1689629554748535,
0169,26,6,558.3333333333334,33.333333333333336,stimulus_0,0.05367981921665338,33.333333333333336,stimulus_0,0.7417378425598145,2,0.8712339401245117,
0169,27,6,558.3333333333334,33.333333333333336,stimulus_1,0.049390160951247486,33.333333333333336,stimulus_0,1.5081028938293457,2,0.7789051532745361,
0169,28,6,708.3333333333334,33.333333333333336,stimulus_0,0.06031693214608774,33.333333333333336,stimulus_0,0.6752979755401611,3,0.35657715797424316,
0169,29,6,741.6666666666667,33.333333333333336,stimulus_0,0.05644982131415088,33.333333333333336,stimulus_0,0.6046390533447266,3,0.40402889251708984,
0169,30,6,508.33333333333337,33.333333333333336,stimulus_1,0.05286315081741211,33.333333333333336,stimulus_1,1.1233820915222168,2,0.5551331043243408,
0169,31,6,516.6666666666667,33.333333333333336,stimulus_1,0.04921540274178687,33.333333333333336,stimulus_0,2.012347936630249,2,1.409125804901123,
0169,32,6,675.0,33.333333333333336,stimulus_0,0.05861931499572309,33.333333333333336,stimulus_0,0.8814380168914795,2,0.7496540546417236,
0169,33,6,550.0,33.333333333333336,stimulus_0,0.0553483992375311,33.333333333333336,stimulus_0,0.7944300174713135,2,0.8350570201873779,
0169,34,6,641.6666666666667,33.333333333333336,stimulus_1,0.05225985651506598,33.333333333333336,stimulus_1,0.8767290115356445,2,1.1510729789733887,
0169,35,6,650.0,33.333333333333336,stimulus_1,0.049085565042486234,33.333333333333336,stimulus_1,1.6017050743103027,2,0.4359419345855713,
0169,36,6,700.0,33.333333333333336,stimulus_1,0.046132551391133425,33.333333333333336,stimulus_1,0.6714580059051514,2,0.5260200500488281,
0169,37,6,558.3333333333334,33.333333333333336,stimulus_0,0.043342867415491315,33.333333333333336,stimulus_0,0.8514840602874756,3,0.34276318550109863,
0169,38,6,633.3333333333334,33.333333333333336,stimulus_0,0.04046180209541811,33.333333333333336,stimulus_0,0.6964631080627441,3,0.44925403594970703,
0169,39,6,608.3333333333334,33.333333333333336,stimulus_1,0.037714102908404656,33.333333333333336,stimulus_1,0.9887599945068359,2,1.3076131343841553,
0169,0,7,608.3333333333334,33.333333333333336,stimulus_0,0.4,33.333333333333336,stimulus_0,0.8025281429290771,3,0.45157885551452637,
0169,1,7,600.0,33.333333333333336,stimulus_1,0.2509879745459487,33.333333333333336,stimulus_1,0.8455259799957275,4,0.43300700187683105,
0169,2,7,558.3333333333334,33.333333333333336,stimulus_1,0.15302949805965513,33.333333333333336,stimulus_1,0.8150460720062256,4,0.45113706588745117,
0169,3,7,525.0,33.333333333333336,stimulus_0,0.07447047493079645,33.333333333333336,stimulus_0,0.6390390396118164,4,0.4158198833465576,
0169,4,7,675.0,33.333333333333336,stimulus_0,0.01,33.333333333333336,stimulus_0,1.648164987564087,3,1.2515740394592285,
0169,5,7,608.3333333333334,33.333333333333336,stimulus_1,0.01,33.333333333333336,stimulus_0,1.069122076034546,2,1.2045838832855225,
0169,6,7,633.3333333333334,33.333333333333336,stimulus_1,0.07052923220481583,33.333333333333336,stimulus_1,0.8029489517211914,3,0.8811728954315186,
0169,7,7,575.0,33.333333333333336,stimulus_0,0.04657433209187717,33.333333333333336,stimulus_0,0.6948342323303223,3,0.6645820140838623,
0169,8,7,600.0,33.333333333333336,stimulus_1,0.02673196139095757,33.333333333333336,stimulus_1,1.0420241355895996,2,1.1815721988677979,
0169,9,7,608.3333333333334,33.333333333333336,stimulus_0,0.01,33.333333333333336,stimulus_1,2.3071179389953613,2,0.3839378356933594,
0169,10,7,600.0,33.333333333333336,stimulus_0,0.049418962741122674,33.333333333333336,stimulus_0,0.9975249767303467,3,0.3940010070800781,
0169,11,7,666.6666666666667,33.333333333333336,stimulus_1,0.03689935795734073,33.333333333333336,stimulus_0,0.97235107421875,2,0.8359510898590088,
0169,12,7,583.3333333333334,33.333333333333336,stimulus_0,0.06691262892471422,33.333333333333336,stimulus_0,0.6923229694366455,2,0.8059110641479492,
0169,13,7,641.6666666666667,33.333333333333336,stimulus_1,0.05704807174888704,33.333333333333336,stimulus_1,1.3618700504302979,2,0.6688289642333984,
0169,14,7,550.0,33.333333333333336,stimulus_0,0.048111357264519206,33.333333333333336,stimulus_0,1.798902988433838,2,0.8484761714935303,
0169,15,7,650.0,33.333333333333336,stimulus_1,0.03987891226826329,33.333333333333336,stimulus_1,1.0625648498535156,2,2.724500894546509,
0169,16,7,733.3333333333334,33.333333333333336,stimulus_1,0.03220638097484413,33.333333333333336,stimulus_1,2.8205628395080566,2,1.3030071258544922,
0169,17,7,500.00000000000006,33.333333333333336,stimulus_1,0.024934511235579382,33.333333333333336,stimulus_1,1.358713150024414,1,0.48343992233276367,
0169,18,7,566.6666666666667,33.333333333333336,stimulus_0,0.017988174169326743,33.333333333333336,stimulus_1,1.0694739818572998,1,0.4999229907989502,
0169,19,7,633.3333333333334,33.333333333333336,stimulus_0,0.035239573945494096,33.333333333333336,stimulus_0,0.8632810115814209,1,0.4922449588775635,
0169,20,7,591.6666666666667,33.333333333333336,stimulus_0,0.02954341815508249,33.333333333333336,stimulus_0,1.561363935470581,2,0.811676025390625,
0169,21,7,525.0,33.333333333333336,stimulus_0,0.02404326295680781,33.333333333333336,stimulus_0,1.2882390022277832,2,0.8640260696411133,
0169,22,7,525.0,33.333333333333336,stimulus_1,0.01863149319365215,33.333333333333336,stimulus_1,1.0125110149383545,2,1.0323491096496582,
0169,23,7,541.6666666666667,33.333333333333336,stimulus_1,0.013695264854064693,33.333333333333336,stimulus_0,0.9336750507354736,1,1.40339994430542,
0169,24,7,550.0,33.333333333333336,stimulus_0,0.026305268829484307,33.333333333333336,stimulus_0,2.951231002807617,1,0.436068058013916,
0169,25,7,550.0,33.333333333333336,stimulus_1,0.021912279375661925,33.333333333333336,stimulus_1,2.190509796142578,1,0.9733371734619141,
0169,26,7,691.6666666666667,33.333333333333336,stimulus_0,0.017510576282579293,33.333333333333336,stimulus_0,2.0685689449310303,1,0.4790639877319336,
0169,27,7,725.0,33.333333333333336,stimulus_1,0.013456833438362459,33.333333333333336,stimulus_1,2.366168975830078,1,0.4886791706085205,
0169,28,7,566.6666666666667,33.333333333333336,stimulus_0,0.01,33.333333333333336,stimulus_0,1.8356900215148926,1,0.5233209133148193,
0169,29,7,591.6666666666667,33.333333333333336,stimulus_1,0.01,33.333333333333336,stimulus_1,1.61191987991333,1,0.5456368923187256,
0169,30,7,708.3333333333334,33.333333333333336,stimulus_0,0.01,33.333333333333336,stimulus_0,1.4265248775482178,1,0.5405380725860596,
0169,31,7,633.3333333333334,33.333333333333336,stimulus_1,0.01,33.333333333333336,stimulus_1,1.719904899597168,1,0.5472419261932373,
0169,32,7,750.0,33.333333333333336,stimulus_1,0.01,33.333333333333336,stimulus_1,1.187427043914795,1,0.4907679557800293,
0169,33,7,750.0,33.333333333333336,stimulus_1,0.01,33.333333333333336,stimulus_0,1.6074271202087402,1,0.6024680137634277,
0169,34,7,600.0,33.333333333333336,stimulus_0,0.01,33.333333333333336,stimulus_1,1.0613667964935303,1,0.551854133605957,
0169,35,7,500.00000000000006,33.333333333333336,stimulus_0,0.011469135340882508,33.333333333333336,stimulus_0,1.3570070266723633,1,0.5281589031219482,
0169,36,7,550.0,33.333333333333336,stimulus_0,0.01,33.333333333333336,stimulus_1,1.968095064163208,1,0.7814919948577881,
0169,37,7,733.3333333333334,33.333333333333336,stimulus_1,0.01648846786104813,33.333333333333336,stimulus_1,1.346963882446289,1,0.517448902130127,
0169,38,7,700.0,33.333333333333336,stimulus_0,0.013768401384978313,33.333333333333336,stimulus_0,1.9104540348052979,1,0.509458065032959,
0169,39,7,741.6666666666667,33.333333333333336,stimulus_1,0.010961731159125687,33.333333333333336,stimulus_1,2.1424038410186768,1,0.6067080497741699,
0169,0,8,575.0,33.333333333333336,stimulus_0,0.4,33.333333333333336,stimulus_0,1.0262138843536377,3,1.2603139877319336,
0169,1,8,725.0,33.333333333333336,stimulus_1,0.2509879745459487,33.333333333333336,stimulus_0,1.7207059860229492,2,3.142267942428589,
0169,2,8,516.6666666666667,33.333333333333336,stimulus_1,0.41338283393965464,33.333333333333336,stimulus_1,1.076280117034912,3,0.6094968318939209,
0169,3,8,741.6666666666667,33.333333333333336,stimulus_0,0.36442478598869543,33.333333333333336,stimulus_0,0.6702651977539062,4,0.30885887145996094,
0169,4,8,658.3333333333334,33.333333333333336,stimulus_1,0.3303856791680673,33.333333333333336,stimulus_1,0.7650890350341797,4,0.4420130252838135,
0169,5,8,675.0,33.333333333333336,stimulus_1,0.30413303756875115,33.333333333333336,stimulus_1,0.655236005783081,4,0.39935994148254395,
0169,6,8,725.0,33.333333333333336,stimulus_0,0.28138160497571485,33.333333333333336,stimulus_0,0.3825840950012207,4,0.3948550224304199,
0169,7,8,691.6666666666667,33.333333333333336,stimulus_0,0.26153612124152487,33.333333333333336,stimulus_0,0.5644199848175049,4,0.38529396057128906,
0169,8,8,750.0,33.333333333333336,stimulus_1,0.24331383750204114,33.333333333333336,stimulus_1,0.7208161354064941,4,0.4063880443572998,
0169,9,8,550.0,33.333333333333336,stimulus_1,0.22588979572281392,33.333333333333336,stimulus_1,0.9033222198486328,4,0.43251490592956543,
0169,10,8,608.3333333333334,33.333333333333336,stimulus_0,0.20982802631838735,33.333333333333336,stimulus_0,0.5290169715881348,4,0.3882260322570801,
0169,11,8,633.3333333333334,33.333333333333336,stimulus_0,0.19324737655618746,33.333333333333336,stimulus_0,0.3925180435180664,4,2.128201961517334,
0169,12,8,583.3333333333334,33.333333333333336,stimulus_0,0.17547116767896656,33.333333333333336,stimulus_0,0.7861590385437012,3,0.4848060607910156,
0169,13,8,583.3333333333334,33.333333333333336,stimulus_0,0.15695884494657253,33.333333333333336,stimulus_0,2.3313369750976562,3,0.4092550277709961,
0169,14,8,566.6666666666667,33.333333333333336,stimulus_1,0.1347568167431284,33.333333333333336,stimulus_1,0.6069610118865967,4,0.6980268955230713,
0169,15,8,625.0,33.333333333333336,stimulus_1,0.10280484015554237,33.333333333333336,stimulus_1,0.6584658622741699,4,0.4160499572753906,
0169,16,8,541.6666666666667,33.333333333333336,stimulus_1,0.053711646596574736,33.333333333333336,stimulus_1,0.5386478900909424,4,0.40751004219055176,
0169,17,8,550.0,33.333333333333336,stimulus_1,0.01,33.333333333333336,stimulus_0,1.9731688499450684,2,1.3705470561981201,
0169,18,8,566.6666666666667,33.333333333333336,stimulus_0,0.10783410120008474,33.333333333333336,stimulus_0,0.5557479858398438,3,0.6721599102020264,
0169,19,8,600.0,33.333333333333336,stimulus_0,0.08784585089981278,33.333333333333336,stimulus_0,0.5582120418548584,4,0.35026001930236816,
0169,20,8,625.0,33.333333333333336,stimulus_1,0.06604418031853215,33.333333333333336,stimulus_1,0.6360049247741699,4,0.3970339298248291,
0169,21,8,716.6666666666667,33.333333333333336,stimulus_0,0.04458280903021222,33.333333333333336,stimulus_0,2.314465045928955,2,0.7472329139709473,
0169,22,8,725.0,33.333333333333336,stimulus_0,0.023804958781386276,33.333333333333336,stimulus_0,0.734266996383667,2,0.7333550453186035,
0169,23,8,508.33333333333337,33.333333333333336,stimulus_1,0.01,33.333333333333336,stimulus_0,1.5694549083709717,2,1.377979040145874,
0169,24,8,650.0,33.333333333333336,stimulus_0,0.04764535685677429,33.333333333333336,stimulus_0,0.7347159385681152,3,1.3496160507202148,
0169,25,8,666.6666666666667,33.333333333333336,stimulus_1,0.03458560859082832,33.333333333333336,stimulus_1,0.6856658458709717,3,0.7855429649353027,
0169,26,8,700.0,33.333333333333336,stimulus_1,0.022437837380843872,33.333333333333336,stimulus_1,1.2890748977661133,2,0.35889697074890137,
0169,27,8,741.6666666666667,33.333333333333336,stimulus_0,0.011756635741674015,33.333333333333336,stimulus_1,1.633970022201538,2,0.4454200267791748,
0169,28,8,725.0,33.333333333333336,stimulus_1,0.03688914396568532,33.333333333333336,stimulus_1,1.3257830142974854,3,0.7617170810699463,
0169,29,8,741.6666666666667,33.333333333333336,stimulus_0,0.028130429634431187,33.333333333333336,stimulus_0,1.129209041595459,2,1.1167960166931152,
0169,30,8,516.6666666666667,33.333333333333336,stimulus_0,0.020139186637151307,33.333333333333336,stimulus_1,1.3613369464874268,2,0.5470600128173828,
0169,31,8,650.0,33.333333333333336,stimulus_1,0.04015870586501402,33.333333333333336,stimulus_1,0.9950439929962158,2,1.1409211158752441,
0169,32,8,750.0,33.333333333333336,stimulus_0,0.03301734699601039,33.333333333333336,stimulus_0,2.1459741592407227,2,0.8898980617523193,
0169,33,8,650.0,33.333333333333336,stimulus_1,0.026300500325108223,33.333333333333336,stimulus_1,1.6048789024353027,1,0.3769090175628662,
0169,34,8,550.0,33.333333333333336,stimulus_1,0.020354696486934942,33.333333333333336,stimulus_1,1.2117679119110107,1,0.37661194801330566,
0169,35,8,708.3333333333334,33.333333333333336,stimulus_0,0.01471666591457571,33.333333333333336,stimulus_0,1.3442471027374268,1,0.49963903427124023,
0169,36,8,550.0,33.333333333333336,stimulus_0,0.01,33.333333333333336,stimulus_1,1.1985387802124023,1,0.4109840393066406,
0169,37,8,675.0,33.333333333333336,stimulus_0,0.022910992615752745,33.333333333333336,stimulus_0,2.276648998260498,1,0.37063002586364746,
0169,38,8,725.0,33.333333333333336,stimulus_1,0.017962945745061465,33.333333333333336,stimulus_1,1.0047938823699951,1,0.4810171127319336,
0169,39,8,566.6666666666667,33.333333333333336,stimulus_1,0.013502080453912657,33.333333333333336,stimulus_1,1.2333199977874756,1,0.383958101272583,
0169,0,9,583.3333333333334,33.333333333333336,stimulus_1,0.4,33.333333333333336,stimulus_1,1.5588178634643555,4,0.470081090927124,
0169,1,9,533.3333333333334,33.333333333333336,stimulus_0,0.2509879745459487,33.333333333333336,stimulus_0,0.49446702003479004,4,0.2905619144439697,
0169,2,9,650.0,33.333333333333336,stimulus_0,0.15302949805965513,33.333333333333336,stimulus_0,0.6029419898986816,4,0.3373379707336426,
0169,3,9,666.6666666666667,33.333333333333336,stimulus_1,0.07447047493079645,33.333333333333336,stimulus_1,0.8033318519592285,4,0.4144728183746338,
0169,4,9,641.6666666666667,33.333333333333336,stimulus_0,0.01,33.333333333333336,stimulus_0,1.168213129043579,3,0.39876508712768555,
0169,5,9,608.3333333333334,33.333333333333336,stimulus_1,0.01,33.333333333333336,stimulus_1,1.1007308959960938,3,0.7589139938354492,
0169,6,9,691.6666666666667,33.333333333333336,stimulus_0,0.01,33.333333333333336,stimulus_1,2.1015751361846924,2,0.5307760238647461,
0169,7,9,641.6666666666667,33.333333333333336,stimulus_1,0.038220555504322185,33.333333333333336,stimulus_1,1.5299859046936035,3,0.7910871505737305,
0169,8,9,658.3333333333334,33.333333333333336,stimulus_0,0.01797247030807697,33.333333333333336,stimulus_0,1.751952886581421,2,0.8740339279174805,
0169,9,9,533.3333333333334,33.333333333333336,stimulus_1,0.01,33.333333333333336,stimulus_0,1.5258619785308838,3,0.4839761257171631,
0169,10,9,591.6666666666667,33.333333333333336,stimulus_0,0.04279127730255783,33.333333333333336,stimulus_0,0.734860897064209,3,0.41470789909362793,
0169,11,9,550.0,33.333333333333336,stimulus_1,0.030011719930846004,33.333333333333336,stimulus_0,1.5673069953918457,3,0.486706018447876,
0169,12,9,575.0,33.333333333333336,stimulus_1,0.05936651133955362,33.333333333333336,stimulus_1,0.8233277797698975,3,0.6508100032806396,
0169,13,9,625.0,33.333333333333336,stimulus_0,0.049328678154720085,33.333333333333336,stimulus_0,0.6304271221160889,4,0.43384408950805664,
0169,14,9,650.0,33.333333333333336,stimulus_0,0.040268836053824475,33.333333333333336,stimulus_0,1.1466429233551025,3,0.6428208351135254,
0169,15,9,675.0,33.333333333333336,stimulus_1,0.03195236244026167,33.333333333333336,stimulus_1,1.1467030048370361,2,1.7636280059814453,
0169,16,9,650.0,33.333333333333336,stimulus_1,0.024185633902017778,33.333333333333336,stimulus_1,1.2639429569244385,2,0.4923090934753418,
0169,17,9,508.33333333333337,33.333333333333336,stimulus_0,0.01684629177212099,33.333333333333336,stimulus_1,2.087731122970581,2,0.47229599952697754,
0169,18,9,625.0,33.333333333333336,stimulus_0,0.035174760946875716,33.333333333333336,stimulus_0,0.8994739055633545,3,0.776710033416748,
0169,19,9,700.0,33.333333333333336,stimulus_1,0.02914201819981549,33.333333333333336,stimulus_1,0.9965851306915283,3,0.7011029720306396,
0169,20,9,650.0,33.333333333333336,stimulus_1,0.023365608099269797,33.333333333333336,stimulus_0,0.9276139736175537,3,0.3851940631866455,
0169,21,9,675.0,33.333333333333336,stimulus_0,0.0378915070770896,33.333333333333336,stimulus_0,0.8985040187835693,3,0.39823389053344727,
0169,22,9,691.6666666666667,33.333333333333336,stimulus_0,0.03276059662650321,33.333333333333336,stimulus_0,1.6545970439910889,2,0.7168900966644287,
0169,23,9,616.6666666666667,33.333333333333336,stimulus_1,0.02770073818878882,33.333333333333336,stimulus_0,1.7015230655670166,2,0.8185169696807861,
0169,24,9,558.3333333333334,33.333333333333336,stimulus_1,0.04071174700277641,33.333333333333336,stimulus_0,2.7945849895477295,2,0.8326230049133301,
0169,25,9,691.6666666666667,33.333333333333336,stimulus_1,0.05296202528687499,33.333333333333336,stimulus_1,0.7073979377746582,3,0.671612024307251,
0169,26,9,641.6666666666667,33.333333333333336,stimulus_0,0.04848578352725602,33.333333333333336,stimulus_0,1.5051510334014893,2,1.3291828632354736,
0169,27,9,533.3333333333334,33.333333333333336,stimulus_0,0.04440101605104313,33.333333333333336,stimulus_0,2.0678441524505615,2,1.2691309452056885,
0169,28,9,500.00000000000006,33.333333333333336,stimulus_1,0.04030707855663235,33.333333333333336,stimulus_0,2.238503932952881,2,1.195962905883789,
0169,29,9,708.3333333333334,33.333333333333336,stimulus_0,0.05068121505325596,33.333333333333336,stimulus_0,2.28777813911438,2,0.8423409461975098,
0169,30,9,700.0,33.333333333333336,stimulus_1,0.046964487706602887,33.333333333333336,stimulus_1,0.7755439281463623,3,0.7437610626220703,
0169,31,9,591.6666666666667,33.333333333333336,stimulus_0,0.04352258529124209,33.333333333333336,stimulus_0,1.5713329315185547,2,0.8766939640045166,
0169,32,9,716.6666666666667,33.333333333333336,stimulus_0,0.040013268964143145,33.333333333333336,stimulus_0,1.6379141807556152,2,0.9534661769866943,
0169,33,9,675.0,33.333333333333336,stimulus_1,0.03673721864575186,33.333333333333336,stimulus_1,0.9334049224853516,2,1.3043160438537598,
0169,34,9,683.3333333333334,33.333333333333336,stimulus_0,0.03367007701065272,33.333333333333336,stimulus_0,1.2613201141357422,2,0.9225029945373535,
0169,35,9,683.3333333333334,33.333333333333336,stimulus_1,0.030524380650954364,33.333333333333336,stimulus_1,0.5818099975585938,2,0.712475061416626,
0169,36,9,600.0,33.333333333333336,stimulus_1,0.02753508826952522,33.333333333333336,stimulus_1,0.9110169410705566,2,2.077108144760132,
0169,37,9,616.6666666666667,33.333333333333336,stimulus_1,0.024739733095565763,33.333333333333336,stimulus_1,2.478111982345581,2,0.6847219467163086,
0169,38,9,525.0,33.333333333333336,stimulus_0,0.021881952765750112,33.333333333333336,stimulus_0,3.065194845199585,1,0.6440789699554443,
0169,39,9,533.3333333333334,33.333333333333336,stimulus_0,0.01910038981612383,33.333333333333336,stimulus_1,0.8499281406402588,1,0.4781148433685303,
