subject,trial_number,staircase_number,fixation_duration_ms,target_duration_ms,target_type,target_contrast,mask_duration_ms,objective_response,objective_response_time_ms,subjective_response,subjective_response_time_ms
0170,0,0,550.0,33.333333333333336,stimulus_0,0.4,33.333333333333336,stimulus_0,0.9328281879425049,3,1.3381729125976562,
0170,1,0,591.6666666666667,33.333333333333336,stimulus_0,0.2509879745459487,33.333333333333336,stimulus_0,3.6540451049804688,3,1.3884789943695068,
0170,2,0,566.6666666666667,33.333333333333336,stimulus_1,0.15302949805965513,33.333333333333336,stimulus_1,1.6291940212249756,2,0.9652998447418213,
0170,3,0,575.0,33.333333333333336,stimulus_1,0.07447047493079645,33.333333333333336,stimulus_1,2.4528889656066895,1,1.9488420486450195,
0170,4,0,608.3333333333334,33.333333333333336,stimulus_1,0.01,33.333333333333336,stimulus_1,2.868185043334961,2,0.9083130359649658,
0170,5,0,733.3333333333334,33.333333333333336,stimulus_0,0.01,33.333333333333336,stimulus_0,1.0243721008300781,3,0.5390470027923584,
0170,6,0,650.0,33.333333333333336,stimulus_1,0.01,33.333333333333336,stimulus_1,1.1434171199798584,2,0.6790580749511719,
0170,7,0,725.0,33.333333333333336,stimulus_0,0.01,33.333333333333336,stimulus_0,1.502776861190796,2,0.9190428256988525,
0170,8,0,716.6666666666667,33.333333333333336,stimulus_0,0.01,33.333333333333336,stimulus_0,1.1113390922546387,2,0.48232388496398926,
0170,9,0,716.6666666666667,33.333333333333336,stimulus_1,0.01,33.333333333333336,stimulus_1,0.9513781070709229,2,0.4506700038909912,
0170,10,0,716.6666666666667,33.333333333333336,stimulus_1,0.01,33.333333333333336,stimulus_0,1.0049479007720947,3,0.5401210784912109,
0170,11,0,533.3333333333334,33.333333333333336,stimulus_0,0.01,33.333333333333336,stimulus_0,1.1423051357269287,2,0.8608391284942627,
0170,12,0,608.3333333333334,33.333333333333336,stimulus_1,0.01,33.333333333333336,stimulus_0,1.0989861488342285,1,0.7454178333282471,
0170,13,0,616.6666666666667,33.333333333333336,stimulus_0,0.01,33.333333333333336,stimulus_0,1.5709869861602783,1,0.534325122833252,
0170,14,0,708.3333333333334,33.333333333333336,stimulus_0,0.01,33.333333333333336,stimulus_0,1.5428600311279297,1,1.248115062713623,
0170,15,0,608.3333333333334,33.333333333333336,stimulus_1,0.01,33.333333333333336,stimulus_0,1.491697072982788,3,0.5023050308227539,
0170,16,0,558.3333333333334,33.333333333333336,stimulus_1,0.010770946795003955,33.333333333333336,stimulus_0,1.817924976348877,1,0.6982519626617432,
0170,17,0,658.3333333333334,33.333333333333336,stimulus_1,0.029724762597871657,33.333333333333336,stimulus_0,2.371964931488037,1,0.6823940277099609,
0170,18,0,666.6666666666667,33.333333333333336,stimulus_0,0.04769756447485568,33.333333333333336,stimulus_0,2.166485071182251,2,1.3129029273986816,
0170,19,0,516.6666666666667,33.333333333333336,stimulus_0,0.04146513430011878,33.333333333333336,stimulus_1,0.7714290618896484,2,0.762178897857666,
0170,20,0,741.6666666666667,33.333333333333336,stimulus_1,0.057311249941939146,33.333333333333336,stimulus_1,0.9021420478820801,3,0.7533080577850342,
0170,21,0,600.0,33.333333333333336,stimulus_0,0.05173006229616661,33.333333333333336,stimulus_0,1.2451069355010986,2,0.5797131061553955,
0170,22,0,683.3333333333334,33.333333333333336,stimulus_1,0.046326050091924476,33.333333333333336,stimulus_1,0.8211250305175781,2,0.5206549167633057,
0170,23,0,750.0,33.333333333333336,stimulus_0,0.04143022596276852,33.333333333333336,stimulus_0,0.8818299770355225,2,0.5028510093688965,
0170,24,0,700.0,33.333333333333336,stimulus_1,0.036623033132468896,33.333333333333336,stimulus_1,0.6348240375518799,4,0.6256589889526367,
0170,25,0,616.6666666666667,33.333333333333336,stimulus_0,0.03223065010844506,33.333333333333336,stimulus_0,1.1127619743347168,1,0.7888121604919434,
0170,26,0,683.3333333333334,33.333333333333336,stimulus_0,0.027845169893905675,33.333333333333336,stimulus_0,0.9037890434265137,2,0.6591999530792236,
0170,27,0,558.3333333333334,33.333333333333336,stimulus_1,0.023826053338199427,33.333333333333336,stimulus_0,1.015052080154419,2,1.3229680061340332,
0170,28,0,625.0,33.333333333333336,stimulus_1,0.03427546597562686,33.333333333333336,stimulus_0,0.7121920585632324,2,0.49790382385253906,
0170,29,0,525.0,33.333333333333336,stimulus_1,0.04436436715988773,33.333333333333336,stimulus_0,1.1343879699707031,2,0.42392802238464355,
0170,30,0,558.3333333333334,33.333333333333336,stimulus_0,0.05418816696043355,33.333333333333336,stimulus_1,0.6730878353118896,2,0.8553550243377686,
0170,31,0,750.0,33.333333333333336,stimulus_0,0.06381321436353943,33.333333333333336,stimulus_0,0.6872351169586182,2,0.4920370578765869,
0170,32,0,516.6666666666667,33.333333333333336,stimulus_1,0.06015451366987673,33.333333333333336,stimulus_0,0.9086709022521973,1,0.5313880443572998,
0170,33,0,633.3333333333334,33.333333333333336,stimulus_0,0.06947180116832102,33.333333333333336,stimulus_0,1.2168760299682617,2,0.4495229721069336,
0170,34,0,683.3333333333334,33.333333333333336,stimulus_0,0.06616031856852933,33.333333333333336,stimulus_0,0.8020520210266113,1,0.43926310539245605,
0170,35,0,716.6666666666667,33.333333333333336,stimulus_1,0.06305780279519352,33.333333333333336,stimulus_1,0.6619241237640381,2,0.8870818614959717,
0170,36,0,600.0,33.333333333333336,stimulus_1,0.05987350255169932,33.333333333333336,stimulus_1,0.7732992172241211,3,0.6040780544281006,
0170,37,0,708.3333333333334,33.333333333333336,stimulus_0,0.05690403439196823,33.333333333333336,stimulus_0,0.5983431339263916,2,0.6351370811462402,
0170,38,0,558.3333333333334,33.333333333333336,stimulus_0,0.05411841050727778,33.333333333333336,stimulus_0,0.6703169345855713,2,0.4128749370574951,
0170,39,0,608.3333333333334,33.333333333333336,stimulus_1,0.0512637332259569,33.333333333333336,stimulus_1,0.6727719306945801,2,0.45566892623901367,
0170,0,1,508.33333333333337,33.333333333333336,stimulus_1,0.4,33.333333333333336,stimulus_1,0.5701479911804199,2,0.3566749095916748,
0170,1,1,583.3333333333334,33.333333333333336,stimulus_0,0.2509879745459487,33.333333333333336,stimulus_0,0.5582561492919922,3,0.41512012481689453,
0170,2,1,733.3333333333334,33.333333333333336,stimulus_1,0.15302949805965513,33.333333333333336,stimulus_1,0.5122530460357666,2,0.3642251491546631,
0170,3,1,591.6666666666667,33.333333333333336,stimulus_0,0.07447047493079645,33.333333333333336,stimulus_0,0.4641118049621582,3,0.38004088401794434,
0170,4,1,591.6666666666667,33.333333333333336,stimulus_0,0.01,33.333333333333336,stimulus_1,0.7392170429229736,1,0.45908308029174805,
0170,5,1,575.0,33.333333333333336,stimulus_1,0.1153395389209863,33.333333333333336,stimulus_1,0.7257211208343506,2,0.4978659152984619,
0170,6,1,566.6666666666667,33.333333333333336,stimulus_0,0.08765518823841861,33.333333333333336,stimulus_0,0.6084129810333252,4,0.5313529968261719,
0170,7,1,508.33333333333337,33.333333333333336,stimulus_1,0.0645285831773651,33.333333333333336,stimulus_1,0.561851978302002,2,0.3867838382720947,
0170,8,1,550.0,33.333333333333336,stimulus_1,0.04384644936456128,33.333333333333336,stimulus_1,0.528303861618042,2,0.29257988929748535,
0170,9,1,725.0,33.333333333333336,stimulus_0,0.02561117919315764,33.333333333333336,stimulus_0,0.4437870979309082,3,0.2994668483734131,
0170,10,1,683.3333333333334,33.333333333333336,stimulus_1,0.01,33.333333333333336,stimulus_1,0.5422980785369873,2,0.3618450164794922,
0170,11,1,541.6666666666667,33.333333333333336,stimulus_0,0.01,33.333333333333336,stimulus_1,0.5317769050598145,2,0.3419950008392334,
0170,12,1,716.6666666666667,33.333333333333336,stimulus_0,0.03294969715543655,33.333333333333336,stimulus_0,0.5155110359191895,3,0.3074910640716553,
0170,13,1,641.6666666666667,33.333333333333336,stimulus_0,0.022293984224143748,33.333333333333336,stimulus_1,0.6597609519958496,2,0.41457509994506836,
0170,14,1,550.0,33.333333333333336,stimulus_1,0.047166655501103216,33.333333333333336,stimulus_0,0.7321300506591797,2,0.5133450031280518,
0170,15,1,683.3333333333334,33.333333333333336,stimulus_1,0.07027833613488416,33.333333333333336,stimulus_1,0.6375489234924316,2,0.38445186614990234,
0170,16,1,708.3333333333334,33.333333333333336,stimulus_1,0.062407588381962975,33.333333333333336,stimulus_1,0.7507340908050537,3,0.2469179630279541,
0170,17,1,658.3333333333334,33.333333333333336,stimulus_0,0.055032060705348274,33.333333333333336,stimulus_0,0.869879961013794,2,0.3733100891113281,
0170,18,1,583.3333333333334,33.333333333333336,stimulus_0,0.04848163721428056,33.333333333333336,stimulus_0,0.6112079620361328,1,0.4030740261077881,
0170,19,1,608.3333333333334,33.333333333333336,stimulus_1,0.04224949105116904,33.333333333333336,stimulus_1,0.5446910858154297,3,0.42623305320739746,
0170,20,1,558.3333333333334,33.333333333333336,stimulus_0,0.03621182203508505,33.333333333333336,stimulus_0,0.6178369522094727,2,0.7453229427337646,
0170,21,1,558.3333333333334,33.333333333333336,stimulus_1,0.03073884221555906,33.333333333333336,stimulus_1,0.6021599769592285,2,0.4554309844970703,
0170,22,1,550.0,33.333333333333336,stimulus_0,0.025382828904353838,33.333333333333336,stimulus_0,1.2492690086364746,2,1.9449408054351807,
0170,23,1,625.0,33.333333333333336,stimulus_1,0.020454103836526183,33.333333333333336,stimulus_1,0.7017509937286377,2,0.4660367965698242,
0170,24,1,500.00000000000006,33.333333333333336,stimulus_1,0.015581451790308565,33.333333333333336,stimulus_0,0.5072860717773438,2,0.4375,
0170,25,1,675.0,33.333333333333336,stimulus_0,0.02858109416140281,33.333333333333336,stimulus_0,0.6140749454498291,2,0.3238358497619629,
0170,26,1,550.0,33.333333333333336,stimulus_1,0.024272727107799985,33.333333333333336,stimulus_0,1.4437267780303955,2,0.32329797744750977,
0170,27,1,608.3333333333334,33.333333333333336,stimulus_0,0.03534130536846403,33.333333333333336,stimulus_1,2.03131103515625,2,0.35028696060180664,
0170,28,1,675.0,33.333333333333336,stimulus_0,0.046632255014886714,33.333333333333336,stimulus_0,0.6540369987487793,2,0.34035801887512207,
0170,29,1,683.3333333333334,33.333333333333336,stimulus_0,0.0428886495497674,33.333333333333336,stimulus_0,0.7675189971923828,1,0.3490638732910156,
0170,30,1,725.0,33.333333333333336,stimulus_1,0.03908711156189887,33.333333333333336,stimulus_1,0.8834090232849121,2,1.0822858810424805,
0170,31,1,583.3333333333334,33.333333333333336,stimulus_1,0.03556777019059365,33.333333333333336,stimulus_1,1.766746997833252,1,0.6161410808563232,
0170,32,1,641.6666666666667,33.333333333333336,stimulus_0,0.032254959475052525,33.333333333333336,stimulus_0,1.138659954071045,1,0.42247891426086426,
0170,33,1,691.6666666666667,33.333333333333336,stimulus_1,0.02885695723029774,33.333333333333336,stimulus_1,0.9119429588317871,2,0.5457549095153809,
0170,34,1,533.3333333333334,33.333333333333336,stimulus_0,0.025693061336865386,33.333333333333336,stimulus_0,0.6226580142974854,2,0.38710808753967285,
0170,35,1,650.0,33.333333333333336,stimulus_1,0.0226984262822294,33.333333333333336,stimulus_1,1.2855420112609863,2,0.3556528091430664,
0170,36,1,675.0,33.333333333333336,stimulus_0,0.019599061885989755,33.333333333333336,stimulus_1,1.5955979824066162,2,0.30901479721069336,
0170,37,1,700.0,33.333333333333336,stimulus_0,0.027642367874967877,33.333333333333336,stimulus_0,0.6307168006896973,1,0.5138030052185059,
0170,38,1,625.0,33.333333333333336,stimulus_1,0.0248829692193433,33.333333333333336,stimulus_0,0.6519641876220703,1,0.2735300064086914,
0170,39,1,708.3333333333334,33.333333333333336,stimulus_1,0.03218989330226002,33.333333333333336,stimulus_0,1.7316370010375977,2,0.6094968318939209,
0170,0,2,566.6666666666667,33.333333333333336,stimulus_0,0.4,33.333333333333336,stimulus_0,0.8675739765167236,1,0.3861567974090576,
0170,1,2,641.6666666666667,33.333333333333336,stimulus_1,0.2509879745459487,33.333333333333336,stimulus_1,0.7568280696868896,2,0.30823206901550293,
0170,2,2,516.6666666666667,33.333333333333336,stimulus_0,0.15302949805965513,33.333333333333336,stimulus_0,0.6659841537475586,2,0.22562313079833984,
0170,3,2,675.0,33.333333333333336,stimulus_1,0.07447047493079645,33.333333333333336,stimulus_1,0.6315360069274902,2,0.30483222007751465,
0170,4,2,516.6666666666667,33.333333333333336,stimulus_0,0.01,33.333333333333336,stimulus_0,0.6230430603027344,2,0.21155190467834473,
0170,5,2,741.6666666666667,33.333333333333336,stimulus_1,0.01,33.333333333333336,stimulus_0,0.7735118865966797,2,0.38701796531677246,
0170,6,2,741.6666666666667,33.333333333333336,stimulus_0,0.07052923220481583,33.333333333333336,stimulus_0,0.7479798793792725,1,0.35842299461364746,
0170,7,2,683.3333333333334,33.333333333333336,stimulus_1,0.04657433209187717,33.333333333333336,stimulus_0,0.44053101539611816,1,1.2546730041503906,
0170,8,2,575.0,33.333333333333336,stimulus_0,0.0973886332928855,33.333333333333336,stimulus_0,0.6579210758209229,2,0.7052741050720215,
0170,9,2,500.00000000000006,33.333333333333336,stimulus_1,0.08148233627619228,33.333333333333336,stimulus_1,0.5610318183898926,2,0.41103601455688477,
0170,10,2,608.3333333333334,33.333333333333336,stimulus_1,0.06739350264530619,33.333333333333336,stimulus_1,0.5749969482421875,2,0.43750500679016113,
0170,11,2,658.3333333333334,33.333333333333336,stimulus_0,0.055271501774670384,33.333333333333336,stimulus_0,0.8317501544952393,2,0.301800012588501,
0170,12,2,700.0,33.333333333333336,stimulus_0,0.04451509075853055,33.333333333333336,stimulus_0,1.0458958148956299,2,0.2822439670562744,
0170,13,2,633.3333333333334,33.333333333333336,stimulus_1,0.03410021737666302,33.333333333333336,stimulus_1,0.5895810127258301,2,0.3136260509490967,
0170,14,2,591.6666666666667,33.333333333333336,stimulus_1,0.024489802822946438,33.333333333333336,stimulus_1,1.5948328971862793,2,0.3189990520477295,
0170,15,2,516.6666666666667,33.333333333333336,stimulus_0,0.01547631373721653,33.333333333333336,stimulus_1,0.6487009525299072,2,0.5752179622650146,
0170,16,2,558.3333333333334,33.333333333333336,stimulus_1,0.0378393356569518,33.333333333333336,stimulus_1,0.6634469032287598,2,0.33357906341552734,
0170,17,2,741.6666666666667,33.333333333333336,stimulus_0,0.03076689018645562,33.333333333333336,stimulus_0,0.44329285621643066,3,0.7097358703613281,
0170,18,2,650.0,33.333333333333336,stimulus_1,0.024001384160491857,33.333333333333336,stimulus_0,1.4115619659423828,2,0.33510899543762207,
0170,19,2,533.3333333333334,33.333333333333336,stimulus_0,0.04058029531671581,33.333333333333336,stimulus_0,0.6617529392242432,2,0.3555469512939453,
0170,20,2,550.0,33.333333333333336,stimulus_0,0.034687805898789725,33.333333333333336,stimulus_1,2.0275559425354004,2,0.3075270652770996,
0170,21,2,633.3333333333334,33.333333333333336,stimulus_1,0.04919495916550959,33.333333333333336,stimulus_1,0.9668610095977783,2,0.3632540702819824,
0170,22,2,550.0,33.333333333333336,stimulus_0,0.043991583893324804,33.333333333333336,stimulus_0,1.1148529052734375,2,0.37867283821105957,
0170,23,2,625.0,33.333333333333336,stimulus_1,0.03886105775435883,33.333333333333336,stimulus_0,1.4454870223999023,2,0.3530099391937256,
0170,24,2,700.0,33.333333333333336,stimulus_0,0.0518587576347464,33.333333333333336,stimulus_0,1.1468911170959473,2,0.678408145904541,
0170,25,2,666.6666666666667,33.333333333333336,stimulus_1,0.047255382981326866,33.333333333333336,stimulus_0,1.5121760368347168,1,0.3033459186553955,
0170,26,2,508.33333333333337,33.333333333333336,stimulus_1,0.059253888989735326,33.333333333333336,stimulus_1,0.988987922668457,2,0.3967559337615967,
0170,27,2,583.3333333333334,33.333333333333336,stimulus_0,0.05513285043146443,33.333333333333336,stimulus_0,0.6367390155792236,1,0.4575941562652588,
0170,28,2,616.6666666666667,33.333333333333336,stimulus_0,0.05128471082939279,33.333333333333336,stimulus_0,0.6524970531463623,3,0.47170495986938477,
0170,29,2,641.6666666666667,33.333333333333336,stimulus_1,0.04742039331987963,33.333333333333336,stimulus_1,0.5652339458465576,2,0.4651310443878174,
0170,30,2,533.3333333333334,33.333333333333336,stimulus_1,0.043851806583254216,33.333333333333336,stimulus_1,1.117676019668579,2,0.3148620128631592,
0170,31,2,633.3333333333334,33.333333333333336,stimulus_0,0.04022453176762952,33.333333333333336,stimulus_0,0.6408891677856445,2,0.3796839714050293,
0170,32,2,616.6666666666667,33.333333333333336,stimulus_0,0.03682070325939385,33.333333333333336,stimulus_0,0.5868420600891113,2,0.4137749671936035,
0170,33,2,675.0,33.333333333333336,stimulus_1,0.03363939504895286,33.333333333333336,stimulus_1,0.6140918731689453,2,0.35417795181274414,
0170,34,2,658.3333333333334,33.333333333333336,stimulus_1,0.03037697277925,33.333333333333336,stimulus_1,0.8387408256530762,2,0.302595853805542,
0170,35,2,675.0,33.333333333333336,stimulus_0,0.0272812455416227,33.333333333333336,stimulus_1,2.2225961685180664,1,0.43088388442993164,
0170,36,2,658.3333333333334,33.333333333333336,stimulus_0,0.03563574952764342,33.333333333333336,stimulus_0,0.6490809917449951,1,0.28050994873046875,
0170,37,2,533.3333333333334,33.333333333333336,stimulus_1,0.032857102612169176,33.333333333333336,stimulus_1,0.8309938907623291,2,0.3844277858734131,
0170,38,2,641.6666666666667,33.333333333333336,stimulus_0,0.02997263425296781,33.333333333333336,stimulus_1,1.6043941974639893,1,0.31742095947265625,
0170,39,2,675.0,33.333333333333336,stimulus_1,0.037445769375102134,33.333333333333336,stimulus_1,2.3558080196380615,2,0.30167508125305176,
0170,0,3,583.3333333333334,33.333333333333336,stimulus_1,0.4,33.333333333333336,stimulus_1,0.8505182266235352,2,0.31720805168151855,
0170,1,3,700.0,33.333333333333336,stimulus_1,0.2509879745459487,33.333333333333336,stimulus_1,0.7074310779571533,2,0.26162004470825195,
0170,2,3,633.3333333333334,33.333333333333336,stimulus_0,0.15302949805965513,33.333333333333336,stimulus_0,0.6008920669555664,1,0.4690868854522705,
0170,3,3,725.0,33.333333333333336,stimulus_0,0.07447047493079645,33.333333333333336,stimulus_0,0.622326135635376,2,11.289501905441284,
0170,4,3,591.6666666666667,33.333333333333336,stimulus_1,0.01,33.333333333333336,stimulus_1,1.9494459629058838,2,0.23578500747680664,
0170,5,3,533.3333333333334,33.333333333333336,stimulus_0,0.01,33.333333333333336,stimulus_0,0.9380700588226318,2,0.38686108589172363,
0170,6,3,633.3333333333334,33.333333333333336,stimulus_0,0.01,33.333333333333336,stimulus_0,2.321141004562378,1,0.5544390678405762,
0170,7,3,666.6666666666667,33.333333333333336,stimulus_1,0.01,33.333333333333336,stimulus_1,0.6676688194274902,2,0.3842020034790039,
0170,8,3,725.0,33.333333333333336,stimulus_0,0.01,33.333333333333336,stimulus_0,0.9257900714874268,1,0.3968930244445801,
0170,9,3,750.0,33.333333333333336,stimulus_0,0.01,33.333333333333336,stimulus_0,0.698112964630127,2,0.4126930236816406,
0170,10,3,600.0,33.333333333333336,stimulus_1,0.01,33.333333333333336,stimulus_1,0.6972708702087402,2,0.23682785034179688,
0170,11,3,608.3333333333334,33.333333333333336,stimulus_1,0.01,33.333333333333336,stimulus_0,0.6489388942718506,2,0.29855895042419434,
0170,12,3,658.3333333333334,33.333333333333336,stimulus_0,0.01,33.333333333333336,stimulus_1,0.6414740085601807,2,0.23903799057006836,
0170,13,3,600.0,33.333333333333336,stimulus_1,0.01,33.333333333333336,stimulus_0,0.5276360511779785,2,0.23581886291503906,
0170,14,3,750.0,33.333333333333336,stimulus_1,0.028096502766644382,33.333333333333336,stimulus_1,0.6433038711547852,2,0.255950927734375,
0170,15,3,508.33333333333337,33.333333333333336,stimulus_0,0.01987205682146026,33.333333333333336,stimulus_0,0.6304888725280762,2,0.29973506927490234,
0170,16,3,708.3333333333334,33.333333333333336,stimulus_0,0.01223240370066786,33.333333333333336,stimulus_0,0.7993290424346924,2,0.37385010719299316,
0170,17,3,575.0,33.333333333333336,stimulus_1,0.01,33.333333333333336,stimulus_1,0.5650110244750977,2,0.28495216369628906,
0170,18,3,633.3333333333334,33.333333333333336,stimulus_0,0.01,33.333333333333336,stimulus_1,0.6332929134368896,2,0.25980305671691895,
0170,19,3,608.3333333333334,33.333333333333336,stimulus_1,0.01677711775660984,33.333333333333336,stimulus_0,1.3788690567016602,2,0.19424200057983398,
0170,20,3,541.6666666666667,33.333333333333336,stimulus_0,0.03288445158752268,33.333333333333336,stimulus_0,0.6375479698181152,2,0.2756929397583008,
0170,21,3,700.0,33.333333333333336,stimulus_1,0.027230646611009157,33.333333333333336,stimulus_0,0.5752570629119873,1,0.31285691261291504,
0170,22,3,558.3333333333334,33.333333333333336,stimulus_0,0.041687861449660246,33.333333333333336,stimulus_0,0.6908910274505615,1,0.29634809494018555,
0170,23,3,516.6666666666667,33.333333333333336,stimulus_1,0.03660744799039317,33.333333333333336,stimulus_1,0.8125839233398438,2,0.24189305305480957,
0170,24,3,708.3333333333334,33.333333333333336,stimulus_1,0.03198836810120409,33.333333333333336,stimulus_1,0.6282379627227783,2,0.2700788974761963,
0170,25,3,516.6666666666667,33.333333333333336,stimulus_0,0.027410102062980224,33.333333333333336,stimulus_0,0.6420269012451172,2,0.27822089195251465,
0170,26,3,500.00000000000006,33.333333333333336,stimulus_0,0.023225961311996057,33.333333333333336,stimulus_0,2.190073013305664,1,0.24181509017944336,
0170,27,3,600.0,33.333333333333336,stimulus_1,0.019019158314218743,33.333333333333336,stimulus_1,0.7899758815765381,2,0.3029029369354248,
0170,28,3,716.6666666666667,33.333333333333336,stimulus_0,0.015148096311141168,33.333333333333336,stimulus_0,1.275805950164795,2,0.4133341312408447,
0170,29,3,500.00000000000006,33.333333333333336,stimulus_1,0.011514253108975026,33.333333333333336,stimulus_0,0.834773063659668,1,0.3347139358520508,
0170,30,3,566.6666666666667,33.333333333333336,stimulus_1,0.02130547300003427,33.333333333333336,stimulus_0,0.7484622001647949,1,0.17287397384643555,
0170,31,3,525.0,33.333333333333336,stimulus_0,0.030793507652023766,33.333333333333336,stimulus_0,0.7319231033325195,1,0.1830730438232422,
0170,32,3,583.3333333333334,33.333333333333336,stimulus_1,0.02735697461041081,33.333333333333336,stimulus_1,0.966015100479126,2,0.27883386611938477,
0170,33,3,725.0,33.333333333333336,stimulus_1,0.024167494342469342,33.333333333333336,stimulus_1,0.9819672107696533,2,0.26055407524108887,
0170,34,3,725.0,33.333333333333336,stimulus_0,0.02091738676340582,33.333333333333336,stimulus_0,1.3031108379364014,1,0.585334062576294,
0170,35,3,666.6666666666667,33.333333333333336,stimulus_0,0.017820075836951332,33.333333333333336,stimulus_1,0.9769680500030518,2,0.2593269348144531,
0170,36,3,525.0,33.333333333333336,stimulus_0,0.026080510163901283,33.333333333333336,stimulus_1,0.7037041187286377,2,0.23202180862426758,
0170,37,3,658.3333333333334,33.333333333333336,stimulus_1,0.03425395645499196,33.333333333333336,stimulus_0,0.7172849178314209,2,0.3422718048095703,
0170,38,3,733.3333333333334,33.333333333333336,stimulus_0,0.04177978144212913,33.333333333333336,stimulus_0,0.749337911605835,1,0.17735600471496582,
0170,39,3,608.3333333333334,33.333333333333336,stimulus_1,0.03893739919009426,33.333333333333336,stimulus_0,1.0097038745880127,1,0.16980314254760742,
0170,0,4,650.0,33.333333333333336,stimulus_1,0.4,33.333333333333336,stimulus_1,0.5412008762359619,2,0.34371399879455566,
0170,1,4,733.3333333333334,33.333333333333336,stimulus_0,0.2509879745459487,33.333333333333336,stimulus_0,0.8006150722503662,2,0.24181318283081055,
0170,2,4,691.6666666666667,33.333333333333336,stimulus_0,0.15302949805965513,33.333333333333336,stimulus_0,0.6243970394134521,1,0.2969021797180176,
0170,3,4,541.6666666666667,33.333333333333336,stimulus_1,0.07447047493079645,33.333333333333336,stimulus_1,0.69952392578125,2,0.295029878616333,
0170,4,4,575.0,33.333333333333336,stimulus_1,0.01,33.333333333333336,stimulus_0,0.9523439407348633,2,0.26349687576293945,
0170,5,4,700.0,33.333333333333336,stimulus_0,0.1153395389209863,33.333333333333336,stimulus_0,0.6300389766693115,2,0.4553079605102539,
0170,6,4,591.6666666666667,33.333333333333336,stimulus_1,0.08765518823841861,33.333333333333336,stimulus_1,0.8385250568389893,4,0.6334149837493896,
0170,7,4,633.3333333333334,33.333333333333336,stimulus_0,0.0645285831773651,33.333333333333336,stimulus_0,0.9515650272369385,4,0.39873385429382324,
0170,8,4,658.3333333333334,33.333333333333336,stimulus_0,0.04384644936456128,33.333333333333336,stimulus_0,0.5886270999908447,4,0.3034939765930176,
0170,9,4,691.6666666666667,33.333333333333336,stimulus_0,0.02561117919315764,33.333333333333336,stimulus_0,0.5906400680541992,4,0.24957013130187988,
0170,10,4,641.6666666666667,33.333333333333336,stimulus_1,0.01,33.333333333333336,stimulus_0,1.8389689922332764,2,0.2345740795135498,
0170,11,4,591.6666666666667,33.333333333333336,stimulus_1,0.04697067611410688,33.333333333333336,stimulus_1,0.7525639533996582,2,0.24463796615600586,
0170,12,4,616.6666666666667,33.333333333333336,stimulus_0,0.03573532719019629,33.333333333333336,stimulus_0,1.1695539951324463,2,0.22184514999389648,
0170,13,4,725.0,33.333333333333336,stimulus_1,0.025583452670635498,33.333333333333336,stimulus_0,0.9530589580535889,2,0.17319703102111816,
0170,14,4,500.00000000000006,33.333333333333336,stimulus_0,0.05151087134641902,33.333333333333336,stimulus_0,0.6294858455657959,2,0.23165202140808105,
0170,15,4,733.3333333333334,33.333333333333336,stimulus_1,0.04295695517469489,33.333333333333336,stimulus_0,0.9072749614715576,3,0.9715352058410645,
0170,16,4,525.0,33.333333333333336,stimulus_1,0.06343651434880787,33.333333333333336,stimulus_0,0.7796380519866943,3,0.47182488441467285,
0170,17,4,625.0,33.333333333333336,stimulus_0,0.08245272491356309,33.333333333333336,stimulus_0,0.7300400733947754,3,0.3163120746612549,
0170,18,4,641.6666666666667,33.333333333333336,stimulus_0,0.07548942159200162,33.333333333333336,stimulus_0,0.6318190097808838,3,0.28406691551208496,
0170,19,4,675.0,33.333333333333336,stimulus_1,0.06929230853226043,33.333333333333336,stimulus_1,0.7595610618591309,2,0.31044888496398926,
0170,20,4,741.6666666666667,33.333333333333336,stimulus_1,0.06339537852828431,33.333333333333336,stimulus_0,1.4004831314086914,3,0.4604668617248535,
0170,21,4,641.6666666666667,33.333333333333336,stimulus_0,0.0781597093972825,33.333333333333336,stimulus_0,0.6313869953155518,3,0.30154895782470703,
0170,22,4,700.0,33.333333333333336,stimulus_0,0.07290143190786391,33.333333333333336,stimulus_0,0.5704770088195801,3,0.23206686973571777,
0170,23,4,566.6666666666667,33.333333333333336,stimulus_1,0.06773919704742082,33.333333333333336,stimulus_1,0.8672997951507568,3,0.934816837310791,
0170,24,4,641.6666666666667,33.333333333333336,stimulus_0,0.06305663373411796,33.333333333333336,stimulus_0,0.6260669231414795,3,0.3085811138153076,
0170,25,4,658.3333333333334,33.333333333333336,stimulus_1,0.05839585127857688,33.333333333333336,stimulus_1,1.2356808185577393,2,0.3375840187072754,
0170,26,4,583.3333333333334,33.333333333333336,stimulus_0,0.054134481534265755,33.333333333333336,stimulus_0,0.683582067489624,3,0.4317030906677246,
0170,27,4,641.6666666666667,33.333333333333336,stimulus_1,0.04985757896140547,33.333333333333336,stimulus_0,1.1488561630249023,3,0.2554318904876709,
0170,28,4,516.6666666666667,33.333333333333336,stimulus_0,0.06072798289744674,33.333333333333336,stimulus_0,0.8314361572265625,3,0.21182703971862793,
0170,29,4,708.3333333333334,33.333333333333336,stimulus_1,0.05687431689646788,33.333333333333336,stimulus_0,1.3460910320281982,3,0.2155308723449707,
0170,30,4,641.6666666666667,33.333333333333336,stimulus_1,0.06715107236787632,33.333333333333336,stimulus_1,2.258739948272705,2,0.3731670379638672,
0170,31,4,708.3333333333334,33.333333333333336,stimulus_0,0.06368881680477351,33.333333333333336,stimulus_0,1.075943946838379,3,0.21412301063537598,
0170,32,4,566.6666666666667,33.333333333333336,stimulus_0,0.0601623471123407,33.333333333333336,stimulus_0,0.6575009822845459,3,0.2230370044708252,
0170,33,4,558.3333333333334,33.333333333333336,stimulus_1,0.056857693656485575,33.333333333333336,stimulus_1,0.8008220195770264,2,0.3321399688720703,
0170,34,4,733.3333333333334,33.333333333333336,stimulus_0,0.053767555704625825,33.333333333333336,stimulus_0,0.763542890548706,3,0.24341797828674316,
0170,35,4,708.3333333333334,33.333333333333336,stimulus_1,0.050600130764824613,33.333333333333336,stimulus_0,0.8252699375152588,1,0.4576108455657959,
0170,36,4,566.6666666666667,33.333333333333336,stimulus_1,0.058728087848459676,33.333333333333336,stimulus_1,2.2829020023345947,2,0.5831911563873291,
0170,37,4,691.6666666666667,33.333333333333336,stimulus_0,0.055869993204077706,33.333333333333336,stimulus_0,1.3404369354248047,1,0.6515851020812988,
0170,38,4,700.0,33.333333333333336,stimulus_1,0.053159804799449206,33.333333333333336,stimulus_0,1.4701440334320068,1,0.20084595680236816,
0170,39,4,550.0,33.333333333333336,stimulus_0,0.06047350900329307,33.333333333333336,stimulus_0,0.6025609970092773,1,0.16595101356506348,
0170,0,5,508.33333333333337,33.333333333333336,stimulus_1,0.4,33.333333333333336,stimulus_1,0.4925260543823242,2,0.36367201805114746,
0170,1,5,658.3333333333334,33.333333333333336,stimulus_1,0.2509879745459487,33.333333333333336,stimulus_1,0.8918609619140625,2,0.4162929058074951,
0170,2,5,691.6666666666667,33.333333333333336,stimulus_0,0.15302949805965513,33.333333333333336,stimulus_0,1.320923089981079,2,0.7883920669555664,
0170,3,5,575.0,33.333333333333336,stimulus_0,0.07447047493079645,33.333333333333336,stimulus_0,0.8409538269042969,3,0.4857821464538574,
0170,4,5,741.6666666666667,33.333333333333336,stimulus_0,0.01,33.333333333333336,stimulus_0,0.8866410255432129,3,0.3994109630584717,
0170,5,5,525.0,33.333333333333336,stimulus_1,0.01,33.333333333333336,stimulus_0,1.5967178344726562,4,0.29111194610595703,
0170,6,5,558.3333333333334,33.333333333333336,stimulus_0,0.07052923220481583,33.333333333333336,stimulus_1,3.3464508056640625,1,1.7536420822143555,
0170,7,5,541.6666666666667,33.333333333333336,stimulus_1,0.128384430186895,33.333333333333336,stimulus_1,1.1216309070587158,2,0.31106114387512207,
0170,8,5,600.0,33.333333333333336,stimulus_0,0.10953691526213832,33.333333333333336,stimulus_0,1.019698143005371,4,0.32219481468200684,
0170,9,5,641.6666666666667,33.333333333333336,stimulus_1,0.09357179614908179,33.333333333333336,stimulus_1,1.1927781105041504,4,0.5472409725189209,
0170,10,5,550.0,33.333333333333336,stimulus_1,0.07935502290566626,33.333333333333336,stimulus_1,1.2305028438568115,4,0.548598051071167,
0170,11,5,666.6666666666667,33.333333333333336,stimulus_0,0.06708194755481839,33.333333333333336,stimulus_0,0.7961499691009521,3,0.4516580104827881,
0170,12,5,508.33333333333337,33.333333333333336,stimulus_1,0.05616061024007646,33.333333333333336,stimulus_1,1.0192530155181885,4,0.5227689743041992,
0170,13,5,575.0,33.333333333333336,stimulus_0,0.04621564792897359,33.333333333333336,stimulus_0,0.9429740905761719,3,0.4204559326171875,
0170,14,5,650.0,33.333333333333336,stimulus_0,0.03698968941286279,33.333333333333336,stimulus_0,1.1207339763641357,1,2.4313528537750244,
0170,15,5,558.3333333333334,33.333333333333336,stimulus_1,0.028298873087239773,33.333333333333336,stimulus_1,0.5274279117584229,4,0.8907489776611328,
0170,16,5,500.00000000000006,33.333333333333336,stimulus_0,0.020009202178153496,33.333333333333336,stimulus_0,0.7202699184417725,4,1.1598570346832275,
0170,17,5,533.3333333333334,33.333333333333336,stimulus_0,0.011988119826722654,33.333333333333336,stimulus_0,0.6208930015563965,3,1.071523904800415,
0170,18,5,750.0,33.333333333333336,stimulus_1,0.01,33.333333333333336,stimulus_1,0.8485641479492188,3,0.9561309814453125,
0170,19,5,733.3333333333334,33.333333333333336,stimulus_1,0.01,33.333333333333336,stimulus_1,1.2174768447875977,3,0.5668449401855469,
0170,20,5,658.3333333333334,33.333333333333336,stimulus_1,0.01,33.333333333333336,stimulus_0,0.6528289318084717,3,0.3078329563140869,
0170,21,5,533.3333333333334,33.333333333333336,stimulus_0,0.011551978156573273,33.333333333333336,stimulus_0,0.7067689895629883,2,0.6368858814239502,
0170,22,5,625.0,33.333333333333336,stimulus_0,0.01,33.333333333333336,stimulus_0,1.8833529949188232,2,0.4022219181060791,
0170,23,5,675.0,33.333333333333336,stimulus_1,0.01,33.333333333333336,stimulus_1,1.5640501976013184,1,1.0678889751434326,
0170,24,5,700.0,33.333333333333336,stimulus_0,0.01,33.333333333333336,stimulus_1,1.4699091911315918,2,0.6734638214111328,
0170,25,5,700.0,33.333333333333336,stimulus_1,0.010719849571114548,33.333333333333336,stimulus_0,0.696530818939209,1,0.7201988697052002,
0170,26,5,608.3333333333334,33.333333333333336,stimulus_1,0.02305983377659615,33.333333333333336,stimulus_0,1.5568439960479736,1,0.3131701946258545,
0170,27,5,733.3333333333334,33.333333333333336,stimulus_0,0.03441578231234965,33.333333333333336,stimulus_0,0.8732650279998779,1,0.1978590488433838,
0170,28,5,708.3333333333334,33.333333333333336,stimulus_1,0.030228224118660163,33.333333333333336,stimulus_1,1.8236310482025146,1,0.741225004196167,
0170,29,5,541.6666666666667,33.333333333333336,stimulus_0,0.026320447716234152,33.333333333333336,stimulus_0,0.8025691509246826,1,0.23092198371887207,
0170,30,5,525.0,33.333333333333336,stimulus_1,0.022677090212425255,33.333333333333336,stimulus_1,0.956718921661377,1,0.5257511138916016,
0170,31,5,591.6666666666667,33.333333333333336,stimulus_0,0.018954549943200005,33.333333333333336,stimulus_0,0.8278751373291016,1,0.25908899307250977,
0170,32,5,541.6666666666667,33.333333333333336,stimulus_1,0.01548690521890006,33.333333333333336,stimulus_0,2.398886203765869,1,0.18087196350097656,
0170,33,5,750.0,33.333333333333336,stimulus_0,0.025079783981627635,33.333333333333336,stimulus_0,0.7848360538482666,1,0.24068212509155273,
0170,34,5,591.6666666666667,33.333333333333336,stimulus_0,0.021948043807006934,33.333333333333336,stimulus_1,0.7684190273284912,1,0.22122406959533691,
0170,35,5,516.6666666666667,33.333333333333336,stimulus_1,0.030438668976375316,33.333333333333336,stimulus_1,1.8690540790557861,2,0.4032769203186035,
0170,36,5,666.6666666666667,33.333333333333336,stimulus_1,0.02737090937407949,33.333333333333336,stimulus_0,0.8831679821014404,1,0.29921889305114746,
0170,37,5,600.0,33.333333333333336,stimulus_0,0.035639536480867706,33.333333333333336,stimulus_0,1.3127460479736328,1,0.2358989715576172,
0170,38,5,500.00000000000006,33.333333333333336,stimulus_0,0.03288219752650989,33.333333333333336,stimulus_0,1.635072946548462,1,0.2323150634765625,
0170,39,5,533.3333333333334,33.333333333333336,stimulus_1,0.030020595320076005,33.333333333333336,stimulus_1,2.4912679195404053,2,1.1772260665893555,
0170,0,6,575.0,33.333333333333336,stimulus_0,0.4,33.333333333333336,stimulus_0,0.7867019176483154,4,1.2102890014648438,
0170,1,6,550.0,33.333333333333336,stimulus_1,0.2509879745459487,33.333333333333336,stimulus_1,0.77764892578125,4,0.31685614585876465,
0170,2,6,625.0,33.333333333333336,stimulus_1,0.15302949805965513,33.333333333333336,stimulus_1,0.5981109142303467,4,0.31667089462280273,
0170,3,6,516.6666666666667,33.333333333333336,stimulus_0,0.07447047493079645,33.333333333333336,stimulus_0,0.7532868385314941,4,0.5784862041473389,
0170,4,6,575.0,33.333333333333336,stimulus_0,0.01,33.333333333333336,stimulus_0,1.728410005569458,3,0.702462911605835,
0170,5,6,550.0,33.333333333333336,stimulus_1,0.01,33.333333333333336,stimulus_0,0.7483060359954834,3,0.33977699279785156,
0170,6,6,558.3333333333334,33.333333333333336,stimulus_0,0.07052923220481583,33.333333333333336,stimulus_0,0.7514300346374512,3,0.30624890327453613,
0170,7,6,508.33333333333337,33.333333333333336,stimulus_1,0.04657433209187717,33.333333333333336,stimulus_1,0.6788840293884277,4,0.30003809928894043,
0170,8,6,533.3333333333334,33.333333333333336,stimulus_1,0.02673196139095757,33.333333333333336,stimulus_0,1.490718126296997,3,0.28444790840148926,
0170,9,6,658.3333333333334,33.333333333333336,stimulus_0,0.07164077160331156,33.333333333333336,stimulus_0,0.8516340255737305,3,0.24288296699523926,
0170,10,6,566.6666666666667,33.333333333333336,stimulus_0,0.05739514180059857,33.333333333333336,stimulus_0,0.7853929996490479,3,0.2593109607696533,
0170,11,6,600.0,33.333333333333336,stimulus_1,0.045188024443374164,33.333333333333336,stimulus_1,0.5198261737823486,4,0.6354718208312988,
0170,12,6,533.3333333333334,33.333333333333336,stimulus_1,0.03439185683395496,33.333333333333336,stimulus_0,0.8006870746612549,3,0.4058659076690674,
0170,13,6,591.6666666666667,33.333333333333336,stimulus_1,0.06022855325524468,33.333333333333336,stimulus_1,0.7380659580230713,4,0.4450101852416992,
0170,14,6,525.0,33.333333333333336,stimulus_0,0.051161698066369166,33.333333333333336,stimulus_0,0.7531728744506836,1,0.4734070301055908,
0170,15,6,666.6666666666667,33.333333333333336,stimulus_0,0.04281273560772897,33.333333333333336,stimulus_0,1.2279858589172363,4,0.40108180046081543,
0170,16,6,675.0,33.333333333333336,stimulus_1,0.035007721945415515,33.333333333333336,stimulus_1,0.7169280052185059,4,0.3384978771209717,
0170,17,6,641.6666666666667,33.333333333333336,stimulus_1,0.02808599295510744,33.333333333333336,stimulus_1,0.6054151058197021,3,0.4666299819946289,
0170,18,6,583.3333333333334,33.333333333333336,stimulus_0,0.021491434150924138,33.333333333333336,stimulus_0,0.7625210285186768,3,0.373399019241333,
0170,19,6,650.0,33.333333333333336,stimulus_0,0.01511287444031817,33.333333333333336,stimulus_0,1.3146848678588867,2,0.8454821109771729,
0170,20,6,641.6666666666667,33.333333333333336,stimulus_0,0.01,33.333333333333336,stimulus_1,0.9859747886657715,1,1.5698230266571045,
0170,21,6,541.6666666666667,33.333333333333336,stimulus_1,0.024716927924946785,33.333333333333336,stimulus_0,1.0361738204956055,2,0.4350011348724365,
0170,22,6,633.3333333333334,33.333333333333336,stimulus_0,0.03846114636568654,33.333333333333336,stimulus_0,0.9445400238037109,3,0.3524961471557617,
0170,23,6,691.6666666666667,33.333333333333336,stimulus_1,0.033558673932284955,33.333333333333336,stimulus_1,0.8393709659576416,3,0.2954270839691162,
0170,24,6,691.6666666666667,33.333333333333336,stimulus_1,0.02869142985861456,33.333333333333336,stimulus_1,1.3179140090942383,2,0.6423461437225342,
0170,25,6,608.3333333333334,33.333333333333336,stimulus_0,0.024239968967178727,33.333333333333336,stimulus_1,1.5690829753875732,2,0.28781890869140625,
0170,26,6,633.3333333333334,33.333333333333336,stimulus_0,0.035636221134213775,33.333333333333336,stimulus_1,3.0230050086975098,2,0.29825496673583984,
0170,27,6,591.6666666666667,33.333333333333336,stimulus_1,0.04726665736604696,33.333333333333336,stimulus_1,0.617495059967041,2,0.8474581241607666,
0170,28,6,675.0,33.333333333333336,stimulus_0,0.043377609449424925,33.333333333333336,stimulus_0,1.5164690017700195,3,0.5100080966949463,
0170,29,6,725.0,33.333333333333336,stimulus_0,0.039445005217231544,33.333333333333336,stimulus_0,0.6309480667114258,1,1.00388503074646,
0170,30,6,658.3333333333334,33.333333333333336,stimulus_1,0.035808481631818434,33.333333333333336,stimulus_0,1.0261390209197998,1,0.29549503326416016,
0170,31,6,666.6666666666667,33.333333333333336,stimulus_1,0.045760811985615824,33.333333333333336,stimulus_1,0.5442891120910645,2,0.4335930347442627,
0170,32,6,725.0,33.333333333333336,stimulus_1,0.04245666973557499,33.333333333333336,stimulus_1,0.6489689350128174,2,0.48079609870910645,
0170,33,6,683.3333333333334,33.333333333333336,stimulus_0,0.039073525060005776,33.333333333333336,stimulus_0,0.8507418632507324,3,0.40340209007263184,
0170,34,6,691.6666666666667,33.333333333333336,stimulus_1,0.03593060190016373,33.333333333333336,stimulus_1,0.6653811931610107,2,0.4492349624633789,
0170,35,6,500.00000000000006,33.333333333333336,stimulus_0,0.03296454691606371,33.333333333333336,stimulus_0,0.7749109268188477,1,0.3833889961242676,
0170,36,6,558.3333333333334,33.333333333333336,stimulus_1,0.02990050857268023,33.333333333333336,stimulus_0,1.7743730545043945,1,0.714655876159668,
0170,37,6,641.6666666666667,33.333333333333336,stimulus_1,0.03781876373392318,33.333333333333336,stimulus_0,2.399630069732666,1,0.390516996383667,
0170,38,6,550.0,33.333333333333336,stimulus_0,0.045681912437966266,33.333333333333336,stimulus_1,0.7497308254241943,3,0.5131969451904297,
0170,39,6,641.6666666666667,33.333333333333336,stimulus_0,0.053496906194787364,33.333333333333336,stimulus_0,1.1140310764312744,2,0.46982693672180176,
0170,0,7,641.6666666666667,33.333333333333336,stimulus_0,0.4,33.333333333333336,stimulus_0,0.6332049369812012,4,0.8529019355773926,
0170,1,7,700.0,33.333333333333336,stimulus_1,0.2509879745459487,33.333333333333336,stimulus_1,1.521791934967041,4,0.5101590156555176,
0170,2,7,683.3333333333334,33.333333333333336,stimulus_1,0.15302949805965513,33.333333333333336,stimulus_1,0.6313819885253906,4,0.3085341453552246,
0170,3,7,733.3333333333334,33.333333333333336,stimulus_0,0.07447047493079645,33.333333333333336,stimulus_0,0.8977408409118652,4,0.8843698501586914,
0170,4,7,533.3333333333334,33.333333333333336,stimulus_0,0.01,33.333333333333336,stimulus_0,0.8234460353851318,3,0.2929961681365967,
0170,5,7,625.0,33.333333333333336,stimulus_1,0.01,33.333333333333336,stimulus_1,0.7193150520324707,3,0.4817800521850586,
0170,6,7,625.0,33.333333333333336,stimulus_1,0.01,33.333333333333336,stimulus_0,1.0526788234710693,2,0.2998349666595459,
0170,7,7,683.3333333333334,33.333333333333336,stimulus_0,0.038220555504322185,33.333333333333336,stimulus_0,0.73744797706604,2,0.37929797172546387,
0170,8,7,566.6666666666667,33.333333333333336,stimulus_1,0.01797247030807697,33.333333333333336,stimulus_1,0.6524748802185059,2,0.32672691345214844,
0170,9,7,658.3333333333334,33.333333333333336,stimulus_0,0.01,33.333333333333336,stimulus_0,0.7813169956207275,1,0.42650294303894043,
0170,10,7,716.6666666666667,33.333333333333336,stimulus_0,0.01,33.333333333333336,stimulus_1,0.7417399883270264,1,0.3872039318084717,
0170,11,7,666.6666666666667,33.333333333333336,stimulus_1,0.02776394814005323,33.333333333333336,stimulus_0,1.4152309894561768,1,0.3819770812988281,
0170,12,7,658.3333333333334,33.333333333333336,stimulus_0,0.05755899708354195,33.333333333333336,stimulus_0,0.7587699890136719,2,0.283358097076416,
0170,13,7,725.0,33.333333333333336,stimulus_1,0.04763312055343211,33.333333333333336,stimulus_1,0.6449708938598633,2,0.31644392013549805,
0170,14,7,525.0,33.333333333333336,stimulus_1,0.03866439590815357,33.333333333333336,stimulus_1,0.6458508968353271,2,0.273237943649292,
0170,15,7,691.6666666666667,33.333333333333336,stimulus_0,0.030425541529840117,33.333333333333336,stimulus_0,0.7018678188323975,2,0.27706313133239746,
0170,16,7,566.6666666666667,33.333333333333336,stimulus_0,0.02274967718323262,33.333333333333336,stimulus_1,1.4853649139404297,2,0.25607919692993164,
0170,17,7,533.3333333333334,33.333333333333336,stimulus_1,0.04149578164799367,33.333333333333336,stimulus_1,0.5636367797851562,2,0.29056215286254883,
0170,18,7,725.0,33.333333333333336,stimulus_0,0.034787717498121984,33.333333333333336,stimulus_0,1.734264850616455,2,0.16784906387329102,
0170,19,7,691.6666666666667,33.333333333333336,stimulus_1,0.028374511867982843,33.333333333333336,stimulus_0,1.2825238704681396,1,0.16461396217346191,
0170,20,7,558.3333333333334,33.333333333333336,stimulus_0,0.04433027325471578,33.333333333333336,stimulus_0,1.459000825881958,1,0.26059889793395996,
0170,21,7,600.0,33.333333333333336,stimulus_1,0.03862345139147688,33.333333333333336,stimulus_1,1.2821969985961914,1,0.3323681354522705,
0170,22,7,716.6666666666667,33.333333333333336,stimulus_1,0.03348219071625047,33.333333333333336,stimulus_1,0.7495951652526855,2,0.832176923751831,
0170,23,7,508.33333333333337,33.333333333333336,stimulus_0,0.02840995010412528,33.333333333333336,stimulus_0,0.954664945602417,1,0.8895750045776367,
0170,24,7,525.0,33.333333333333336,stimulus_0,0.023793914113231174,33.333333333333336,stimulus_0,0.7158570289611816,2,0.4103660583496094,
0170,25,7,500.00000000000006,33.333333333333336,stimulus_0,0.019185847947507773,33.333333333333336,stimulus_0,1.9473400115966797,1,0.7551929950714111,
0170,26,7,525.0,33.333333333333336,stimulus_1,0.014949854207788382,33.333333333333336,stimulus_1,0.7839338779449463,1,0.4019289016723633,
0170,27,7,583.3333333333334,33.333333333333336,stimulus_1,0.010714332783475278,33.333333333333336,stimulus_1,2.616074800491333,2,0.5196011066436768,
0170,28,7,708.3333333333334,33.333333333333336,stimulus_1,0.01,33.333333333333336,stimulus_1,2.381335973739624,2,0.2826550006866455,
0170,29,7,616.6666666666667,33.333333333333336,stimulus_0,0.01,33.333333333333336,stimulus_0,0.6893429756164551,2,0.30738210678100586,
0170,30,7,683.3333333333334,33.333333333333336,stimulus_1,0.01,33.333333333333336,stimulus_1,0.8309249877929688,2,0.2860569953918457,
0170,31,7,591.6666666666667,33.333333333333336,stimulus_0,0.01,33.333333333333336,stimulus_0,1.2581820487976074,1,0.21889305114746094,
0170,32,7,716.6666666666667,33.333333333333336,stimulus_1,0.01,33.333333333333336,stimulus_1,0.6622240543365479,1,0.3193089962005615,
0170,33,7,683.3333333333334,33.333333333333336,stimulus_1,0.01,33.333333333333336,stimulus_0,1.383113145828247,1,0.17301487922668457,
0170,34,7,541.6666666666667,33.333333333333336,stimulus_0,0.01,33.333333333333336,stimulus_1,1.3835029602050781,1,0.2634298801422119,
0170,35,7,616.6666666666667,33.333333333333336,stimulus_0,0.01,33.333333333333336,stimulus_1,2.42024302482605,1,0.9516689777374268,
0170,36,7,583.3333333333334,33.333333333333336,stimulus_0,0.01755442386127576,33.333333333333336,stimulus_0,0.857475996017456,1,0.26307201385498047,
0170,37,7,741.6666666666667,33.333333333333336,stimulus_1,0.014753705254644145,33.333333333333336,stimulus_1,0.6561510562896729,1,0.42810583114624023,
0170,38,7,591.6666666666667,33.333333333333336,stimulus_0,0.011891293254843505,33.333333333333336,stimulus_0,0.958259105682373,1,0.2981548309326172,
0170,39,7,725.0,33.333333333333336,stimulus_1,0.01,33.333333333333336,stimulus_0,2.2313671112060547,2,0.2543160915374756,
0170,0,8,650.0,33.333333333333336,stimulus_1,0.4,33.333333333333336,stimulus_1,0.6841440200805664,1,0.5008790493011475,
0170,1,8,633.3333333333334,33.333333333333336,stimulus_1,0.2509879745459487,33.333333333333336,stimulus_1,0.7003738880157471,4,0.2595028877258301,
0170,2,8,600.0,33.333333333333336,stimulus_0,0.15302949805965513,33.333333333333336,stimulus_0,0.7050771713256836,4,0.44235897064208984,
0170,3,8,675.0,33.333333333333336,stimulus_0,0.07447047493079645,33.333333333333336,stimulus_0,0.5940079689025879,4,0.24307584762573242,
0170,4,8,541.6666666666667,33.333333333333336,stimulus_0,0.01,33.333333333333336,stimulus_1,0.9029769897460938,3,0.3198850154876709,
0170,5,8,666.6666666666667,33.333333333333336,stimulus_1,0.1153395389209863,33.333333333333336,stimulus_0,0.7244510650634766,1,1.992082118988037,
0170,6,8,683.3333333333334,33.333333333333336,stimulus_1,0.1846424342245247,33.333333333333336,stimulus_1,0.4856390953063965,4,0.9185609817504883,
0170,7,8,525.0,33.333333333333336,stimulus_0,0.16204061714958462,33.333333333333336,stimulus_0,0.582740068435669,4,0.9140088558197021,
0170,8,8,625.0,33.333333333333336,stimulus_1,0.14371252815552488,33.333333333333336,stimulus_1,0.4924650192260742,4,0.38805103302001953,
0170,9,8,500.00000000000006,33.333333333333336,stimulus_0,0.1278842251972933,33.333333333333336,stimulus_0,0.5746159553527832,4,0.4458131790161133,
0170,10,8,591.6666666666667,33.333333333333336,stimulus_0,0.11449269270525125,33.333333333333336,stimulus_0,0.6774070262908936,4,0.38762879371643066,
0170,11,8,708.3333333333334,33.333333333333336,stimulus_1,0.10196907907317859,33.333333333333336,stimulus_1,0.36478495597839355,4,0.39571189880371094,
0170,12,8,716.6666666666667,33.333333333333336,stimulus_1,0.0907081032564358,33.333333333333336,stimulus_1,0.462277889251709,4,0.35315990447998047,
0170,13,8,683.3333333333334,33.333333333333336,stimulus_0,0.08036335772118869,33.333333333333336,stimulus_0,0.7417511940002441,4,0.6932969093322754,
0170,14,8,741.6666666666667,33.333333333333336,stimulus_0,0.07068426153404073,33.333333333333336,stimulus_0,0.5658459663391113,4,0.3517129421234131,
0170,15,8,700.0,33.333333333333336,stimulus_1,0.061478709992862424,33.333333333333336,stimulus_1,0.4295389652252197,4,0.40482115745544434,
0170,16,8,733.3333333333334,33.333333333333336,stimulus_1,0.05259297675566743,33.333333333333336,stimulus_1,0.5403928756713867,4,0.374251127243042,
0170,17,8,591.6666666666667,33.333333333333336,stimulus_1,0.0438987105673429,33.333333333333336,stimulus_1,0.4888451099395752,4,0.37772297859191895,
0170,18,8,525.0,33.333333333333336,stimulus_0,0.03528222820316945,33.333333333333336,stimulus_0,0.726722002029419,4,0.3478870391845703,
0170,19,8,625.0,33.333333333333336,stimulus_0,0.027225792569621987,33.333333333333336,stimulus_0,0.6020450592041016,4,0.33632683753967285,
0170,20,8,658.3333333333334,33.333333333333336,stimulus_1,0.019062539754524155,33.333333333333336,stimulus_1,0.40955495834350586,4,0.41146111488342285,
0170,21,8,591.6666666666667,33.333333333333336,stimulus_0,0.010657858116398244,33.333333333333336,stimulus_0,1.0884079933166504,4,0.5932250022888184,
0170,22,8,558.3333333333334,33.333333333333336,stimulus_1,0.01,33.333333333333336,stimulus_0,1.942539930343628,2,0.3164529800415039,
0170,23,8,608.3333333333334,33.333333333333336,stimulus_0,0.025242197735959315,33.333333333333336,stimulus_1,0.6654019355773926,2,0.37422609329223633,
0170,24,8,691.6666666666667,33.333333333333336,stimulus_1,0.04163784431788142,33.333333333333336,stimulus_0,2.2498838901519775,1,0.48652219772338867,
0170,25,8,583.3333333333334,33.333333333333336,stimulus_0,0.05516123220768293,33.333333333333336,stimulus_0,0.6185309886932373,4,1.525303840637207,
0170,26,8,741.6666666666667,33.333333333333336,stimulus_1,0.050674053658075424,33.333333333333336,stimulus_1,1.2978301048278809,4,0.6095359325408936,
0170,27,8,575.0,33.333333333333336,stimulus_0,0.046172739269337126,33.333333333333336,stimulus_0,1.9548869132995605,2,1.7271718978881836,
0170,28,8,716.6666666666667,33.333333333333336,stimulus_0,0.04198149644803911,33.333333333333336,stimulus_0,0.6699569225311279,2,1.2326960563659668,
0170,29,8,691.6666666666667,33.333333333333336,stimulus_1,0.03771236539525158,33.333333333333336,stimulus_1,0.594182014465332,2,0.45702505111694336,
0170,30,8,733.3333333333334,33.333333333333336,stimulus_0,0.03373129925702523,33.333333333333336,stimulus_0,0.5362679958343506,2,0.27236294746398926,
0170,31,8,750.0,33.333333333333336,stimulus_1,0.02966285411988978,33.333333333333336,stimulus_0,0.9935281276702881,2,0.2610619068145752,
0170,32,8,658.3333333333334,33.333333333333336,stimulus_0,0.04014345313709389,33.333333333333336,stimulus_0,0.603295087814331,4,0.3456308841705322,
0170,33,8,666.6666666666667,33.333333333333336,stimulus_1,0.03655301564953167,33.333333333333336,stimulus_0,0.5271120071411133,4,0.3073570728302002,
0170,34,8,500.00000000000006,33.333333333333336,stimulus_1,0.04626612119870105,33.333333333333336,stimulus_1,1.277221918106079,2,0.2873728275299072,
0170,35,8,708.3333333333334,33.333333333333336,stimulus_0,0.043091232858934736,33.333333333333336,stimulus_0,0.5193839073181152,2,0.6981289386749268,
0170,36,8,500.00000000000006,33.333333333333336,stimulus_0,0.03981041488934317,33.333333333333336,stimulus_0,0.6001710891723633,2,0.3086831569671631,
0170,37,8,533.3333333333334,33.333333333333336,stimulus_1,0.03669954894635402,33.333333333333336,stimulus_1,0.623323917388916,2,0.41520214080810547,
0170,38,8,583.3333333333334,33.333333333333336,stimulus_0,0.033761763131799016,33.333333333333336,stimulus_1,0.7910161018371582,2,0.3649768829345703,
0170,39,8,608.3333333333334,33.333333333333336,stimulus_1,0.04164166326302343,33.333333333333336,stimulus_1,0.5942361354827881,2,0.38468194007873535,
0170,0,9,708.3333333333334,33.333333333333336,stimulus_0,0.4,33.333333333333336,stimulus_0,0.6695640087127686,2,0.36865997314453125,
0170,1,9,625.0,33.333333333333336,stimulus_1,0.2509879745459487,33.333333333333336,stimulus_1,0.6897859573364258,2,0.3077058792114258,
0170,2,9,508.33333333333337,33.333333333333336,stimulus_0,0.15302949805965513,33.333333333333336,stimulus_1,1.362793207168579,2,0.49291014671325684,
0170,3,9,516.6666666666667,33.333333333333336,stimulus_1,0.28633771842292194,33.333333333333336,stimulus_1,0.7843458652496338,2,0.4272730350494385,
0170,4,9,516.6666666666667,33.333333333333336,stimulus_1,0.24998879913919678,33.333333333333336,stimulus_1,0.6573460102081299,2,0.4063260555267334,
0170,5,9,708.3333333333334,33.333333333333336,stimulus_1,0.22142643688099556,33.333333333333336,stimulus_1,0.6723790168762207,4,0.5575449466705322,
0170,6,9,608.3333333333334,33.333333333333336,stimulus_0,0.19761807270199386,33.333333333333336,stimulus_0,0.6745009422302246,4,0.31486082077026367,
0170,7,9,641.6666666666667,33.333333333333336,stimulus_0,0.1775394486735251,33.333333333333336,stimulus_0,0.4815800189971924,4,0.33910202980041504,
0170,8,9,508.33333333333337,33.333333333333336,stimulus_0,0.15965222136131638,33.333333333333336,stimulus_0,0.4147200584411621,4,0.3482639789581299,
0170,9,9,750.0,33.333333333333336,stimulus_1,0.14302285456392866,33.333333333333336,stimulus_1,0.47719693183898926,4,0.40473103523254395,
0170,10,9,541.6666666666667,33.333333333333336,stimulus_1,0.12701803702916253,33.333333333333336,stimulus_1,0.8087000846862793,4,0.3406980037689209,
0170,11,9,725.0,33.333333333333336,stimulus_0,0.11220779048441626,33.333333333333336,stimulus_0,0.5301611423492432,4,0.2915630340576172,
0170,12,9,708.3333333333334,33.333333333333336,stimulus_1,0.09698209648549921,33.333333333333336,stimulus_1,0.3902609348297119,4,0.5703690052032471,
0170,13,9,633.3333333333334,33.333333333333336,stimulus_0,0.08200668261592553,33.333333333333336,stimulus_0,0.596580982208252,4,0.3658320903778076,
0170,14,9,583.3333333333334,33.333333333333336,stimulus_0,0.06544571631415524,33.333333333333336,stimulus_0,0.5977318286895752,4,0.5822000503540039,
0170,15,9,516.6666666666667,33.333333333333336,stimulus_1,0.047825028510276646,33.333333333333336,stimulus_1,0.5486209392547607,4,0.28067517280578613,
0170,16,9,675.0,33.333333333333336,stimulus_1,0.026224140676445074,33.333333333333336,stimulus_0,1.0635879039764404,3,0.7304370403289795,
0170,17,9,750.0,33.333333333333336,stimulus_0,0.07643657344069721,33.333333333333336,stimulus_0,1.2342729568481445,3,0.2790520191192627,
0170,18,9,633.3333333333334,33.333333333333336,stimulus_1,0.06744806649680524,33.333333333333336,stimulus_1,1.393773078918457,4,0.5432121753692627,
0170,19,9,616.6666666666667,33.333333333333336,stimulus_0,0.05849180252766939,33.333333333333336,stimulus_0,0.7486510276794434,3,0.7361710071563721,
0170,20,9,708.3333333333334,33.333333333333336,stimulus_1,0.04945349130173082,33.333333333333336,stimulus_1,1.1284120082855225,3,0.5555610656738281,
0170,21,9,633.3333333333334,33.333333333333336,stimulus_0,0.04019732887986571,33.333333333333336,stimulus_0,0.6254918575286865,4,0.24431395530700684,
0170,22,9,650.0,33.333333333333336,stimulus_0,0.030570560329181373,33.333333333333336,stimulus_0,0.6074199676513672,4,0.30336999893188477,
0170,23,9,525.0,33.333333333333336,stimulus_1,0.02044188374524708,33.333333333333336,stimulus_1,1.7535459995269775,3,0.37235093116760254,
0170,24,9,516.6666666666667,33.333333333333336,stimulus_1,0.01,33.333333333333336,stimulus_0,0.5918760299682617,3,0.6336350440979004,
0170,25,9,550.0,33.333333333333336,stimulus_0,0.03664056559782114,33.333333333333336,stimulus_0,0.605963945388794,2,0.42426109313964844,
0170,26,9,608.3333333333334,33.333333333333336,stimulus_1,0.030021470246704374,33.333333333333336,stimulus_1,0.6951360702514648,1,0.3720371723175049,
0170,27,9,566.6666666666667,33.333333333333336,stimulus_0,0.02317363681139034,33.333333333333336,stimulus_0,0.7281889915466309,2,0.3989121913909912,
0170,28,9,716.6666666666667,33.333333333333336,stimulus_0,0.016129193671307884,33.333333333333336,stimulus_0,1.5662879943847656,1,0.6699950695037842,
0170,29,9,608.3333333333334,33.333333333333336,stimulus_1,0.01,33.333333333333336,stimulus_1,0.7745161056518555,1,0.3069748878479004,
0170,30,9,741.6666666666667,33.333333333333336,stimulus_1,0.01,33.333333333333336,stimulus_1,0.6580348014831543,1,0.34914612770080566,
0170,31,9,708.3333333333334,33.333333333333336,stimulus_0,0.01,33.333333333333336,stimulus_0,0.8308548927307129,1,0.27614784240722656,
0170,32,9,750.0,33.333333333333336,stimulus_0,0.01,33.333333333333336,stimulus_1,1.2186930179595947,2,0.3845698833465576,
0170,33,9,608.3333333333334,33.333333333333336,stimulus_0,0.010025780539489104,33.333333333333336,stimulus_1,1.9970879554748535,2,0.3241889476776123,
0170,34,9,691.6666666666667,33.333333333333336,stimulus_1,0.024013973060205474,33.333333333333336,stimulus_0,1.1579878330230713,1,0.404695987701416,
0170,35,9,583.3333333333334,33.333333333333336,stimulus_1,0.03563335129215539,33.333333333333336,stimulus_1,0.5063109397888184,1,0.6563611030578613,
0170,36,9,725.0,33.333333333333336,stimulus_1,0.03180429491939496,33.333333333333336,stimulus_1,0.6664309501647949,1,0.6886839866638184,
0170,37,9,566.6666666666667,33.333333333333336,stimulus_1,0.027830877368625884,33.333333333333336,stimulus_1,0.5313880443572998,1,1.2978489398956299,
0170,38,9,616.6666666666667,33.333333333333336,stimulus_0,0.024074380335352696,33.333333333333336,stimulus_0,1.0009489059448242,1,0.2924480438232422,
0170,39,9,700.0,33.333333333333336,stimulus_0,0.02020929541206834,33.333333333333336,stimulus_1,2.7413899898529053,2,0.5589311122894287,
